TimestampSync,Accel_LN_X,Accel_LN_Y,Accel_LN_Z,Battery,Range,Skin_Conductance,Skin_Resistance,Gyro_X,Gyro_Y,Gyro_Z,Mag_X,Mag_Y_CAL,Mag_Z,
1.7494509651168953E12,8.380434782608695,0.967391304347826,8.119565217391305,4140.65934065934,2.0,2.512087912087912,398.0752405949256,-23.709923664122137,0.9465648854961831,3.1755725190839694,-0.2608695652173913,0.10494752623688156,-0.9775112443778111,
1.749450965136427E12,8.391304347826086,0.967391304347826,8.130434782608695,4134.798534798534,2.0,2.5106227106227106,398.3075576305807,-23.923664122137403,0.6412213740458015,3.1908396946564883,-0.272863568215892,0.10644677661169415,-0.9790104947526237,
1.7494509651559587E12,8.402173913043478,0.9891304347826086,8.130434782608695,4140.65934065934,2.0,2.512087912087912,398.0752405949256,-23.862595419847327,0.6412213740458015,3.282442748091603,-0.272863568215892,0.10194902548725637,-0.9715142428785607,
1.7494509651754905E12,8.402173913043478,1.0,8.130434782608695,4140.65934065934,2.0,2.512087912087912,398.0752405949256,-24.0,0.8702290076335878,3.32824427480916,-0.2698650674662669,0.09895052473763118,-0.9775112443778111,
1.7494509651950222E12,8.369565217391305,0.9891304347826086,8.141304347826086,4139.194139194139,2.0,2.512087912087912,398.0752405949256,-23.908396946564885,1.0229007633587786,3.3587786259541983,-0.26836581709145424,0.095952023988006,-0.9820089955022488,
1.749450965214554E12,8.391304347826086,0.9782608695652174,8.141304347826086,4140.65934065934,2.0,2.512087912087912,398.0752405949256,-23.954198473282442,1.1450381679389312,3.801526717557252,-0.27136431784107945,0.0944527736131934,-0.9820089955022488,
1.749450965234086E12,8.380434782608695,0.967391304347826,8.141304347826086,4112.820512820513,2.0,2.512087912087912,398.0752405949256,-23.541984732824428,1.114503816793893,3.7862595419847325,-0.2608695652173913,0.10644677661169415,-0.9865067466266866,
1.7494509652536177E12,8.402173913043478,0.9565217391304348,8.119565217391305,4140.65934065934,2.0,2.512087912087912,398.0752405949256,-24.259541984732824,1.0076335877862594,3.3587786259541983,-0.27136431784107945,0.10794602698650674,-0.9790104947526237,
1.7494509652731494E12,8.380434782608695,0.967391304347826,8.152173913043478,4139.194139194139,2.0,2.512087912087912,398.0752405949256,-23.801526717557252,1.1603053435114503,3.282442748091603,-0.2653673163418291,0.12143928035982009,-0.9805097451274363,
1.7494509652926812E12,8.380434782608695,0.967391304347826,8.119565217391305,4133.333333333333,2.0,2.5106227106227106,398.3075576305807,-23.801526717557252,1.2519083969465647,3.0076335877862594,-0.2653673163418291,0.09295352323838081,-0.9760119940029984,
1.749450965312213E12,8.369565217391305,0.967391304347826,8.141304347826086,4140.65934065934,2.0,2.512087912087912,398.0752405949256,-23.725190839694655,0.8091603053435115,2.748091603053435,-0.2653673163418291,0.10044977511244378,-0.9820089955022488,
1.7494509653317446E12,8.380434782608695,1.0108695652173914,8.152173913043478,4140.65934065934,2.0,2.5106227106227106,398.3075576305807,-23.832061068702288,0.916030534351145,2.900763358778626,-0.2653673163418291,0.0914542728635682,-0.9880059970014993,
1.7494509653512764E12,8.402173913043478,0.967391304347826,8.152173913043478,4137.728937728937,2.0,2.5106227106227106,398.3075576305807,-24.12213740458015,0.8549618320610687,2.8091603053435112,-0.2608695652173913,0.0944527736131934,-0.9745127436281859,
1.749450965370808E12,8.402173913043478,1.0,8.141304347826086,4139.194139194139,2.0,2.5106227106227106,398.3075576305807,-23.98473282442748,0.33587786259541985,3.3740458015267176,-0.2638680659670165,0.10194902548725637,-0.9805097451274363,
1.7494509653903398E12,8.41304347826087,0.9782608695652174,8.119565217391305,4115.750915750916,2.0,2.5106227106227106,398.3075576305807,-24.30534351145038,0.6106870229007634,3.6030534351145036,-0.26686656671664166,0.09895052473763118,-0.9820089955022488,
1.7494509654098716E12,8.41304347826087,0.9891304347826086,8.130434782608695,4140.65934065934,2.0,2.509157509157509,398.54014598540147,-23.801526717557252,0.9618320610687022,3.8167938931297707,-0.27136431784107945,0.10494752623688156,-0.9775112443778111,
1.7494509654294033E12,8.391304347826086,1.0,8.141304347826086,4140.65934065934,2.0,2.509157509157509,398.54014598540147,-23.893129770992367,1.465648854961832,3.4351145038167936,-0.26836581709145424,0.10194902548725637,-0.9775112443778111,
1.749450965448935E12,8.402173913043478,1.0,8.130434782608695,4133.333333333333,2.0,2.507692307692308,398.7730061349693,-23.63358778625954,1.3587786259541985,3.6488549618320607,-0.2623688155922039,0.1199400299850075,-0.9805097451274363,
1.7494509654684668E12,8.380434782608695,1.0,8.16304347826087,4140.65934065934,2.0,2.507692307692308,398.7730061349693,-23.679389312977097,1.5877862595419847,3.480916030534351,-0.2638680659670165,0.08995502248875561,-0.9895052473763118,
1.7494509654879985E12,8.358695652173912,0.9891304347826086,8.16304347826087,4140.65934065934,2.0,2.506227106227106,399.00613855597777,-23.78625954198473,1.7099236641221374,3.5572519083969465,-0.2653673163418291,0.10644677661169415,-0.9805097451274363,
1.7494509655075303E12,8.347826086956522,1.0,8.141304347826086,4140.65934065934,2.0,2.506227106227106,399.00613855597777,-23.908396946564885,1.5114503816793892,3.297709923664122,-0.27136431784107945,0.10344827586206896,-0.9865067466266866,
1.749450965527062E12,8.380434782608695,1.0108695652173914,8.152173913043478,4140.65934065934,2.0,2.506227106227106,399.00613855597777,-24.015267175572518,0.9465648854961831,3.3740458015267176,-0.27586206896551724,0.10644677661169415,-0.9835082458770614,
1.7494509655465938E12,8.358695652173912,1.0,8.141304347826086,4117.216117216117,2.0,2.5047619047619047,399.23954372623575,-23.96946564885496,0.6870229007633587,3.0534351145038165,-0.2788605697151424,0.0944527736131934,-0.9745127436281859,
1.7494509655661255E12,8.391304347826086,1.0,8.152173913043478,4140.65934065934,2.0,2.5047619047619047,399.23954372623575,-24.412213740458014,0.6564885496183206,3.4351145038167936,-0.27136431784107945,0.0944527736131934,-0.9775112443778111,
1.7494509655856572E12,8.41304347826087,0.9891304347826086,8.16304347826087,4140.65934065934,2.0,2.5032967032967033,399.47322212467077,-24.48854961832061,1.083969465648855,3.541984732824427,-0.2698650674662669,0.095952023988006,-0.9895052473763118,
1.749450965605189E12,8.41304347826087,0.9891304347826086,8.141304347826086,4133.333333333333,2.0,2.501831501831502,399.7071742313324,-24.381679389312975,1.3740458015267174,3.618320610687023,-0.27436281859070466,0.10344827586206896,-0.9790104947526237,
1.7494509656247207E12,8.380434782608695,0.9891304347826086,8.141304347826086,4142.124542124542,2.0,2.501831501831502,399.7071742313324,-24.335877862595417,1.099236641221374,3.5877862595419847,-0.2623688155922039,0.11244377811094453,-0.9835082458770614,
1.7494509656442524E12,8.391304347826086,1.0,8.141304347826086,4140.65934065934,2.0,2.501831501831502,399.7071742313324,-24.015267175572518,1.0534351145038168,3.2671755725190836,-0.2653673163418291,0.10344827586206896,-0.9805097451274363,
1.7494509656637842E12,8.369565217391305,1.0108695652173914,8.119565217391305,4139.194139194139,2.0,2.498901098901099,400.1759014951627,-24.259541984732824,1.2366412213740459,3.49618320610687,-0.2698650674662669,0.08695652173913043,-0.9865067466266866,
1.749450965683316E12,8.380434782608695,1.0108695652173914,8.152173913043478,4139.194139194139,2.0,2.498901098901099,400.1759014951627,-24.15267175572519,1.3282442748091603,3.49618320610687,-0.26686656671664166,0.09745127436281859,-0.9820089955022488,
1.7494509657028477E12,8.369565217391305,1.0217391304347825,8.152173913043478,4115.750915750916,2.0,2.4974358974358974,400.4106776180698,-24.12213740458015,1.1450381679389312,3.709923664122137,-0.26686656671664166,0.0914542728635682,-0.9805097451274363,
1.7494509657223794E12,8.369565217391305,0.9891304347826086,8.152173913043478,4140.65934065934,2.0,2.495970695970696,400.6457293806868,-24.12213740458015,1.2519083969465647,3.3740458015267176,-0.26836581709145424,0.09745127436281859,-0.9760119940029984,
1.7494509657419111E12,8.380434782608695,1.0,8.16304347826087,4140.65934065934,2.0,2.495970695970696,400.6457293806868,-24.366412213740457,1.083969465648855,3.3893129770992365,-0.27436281859070466,0.10194902548725637,-0.9775112443778111,
1.7494509657614429E12,8.402173913043478,0.9782608695652174,8.152173913043478,4134.798534798534,2.0,2.495970695970696,400.6457293806868,-24.213740458015266,0.7022900763358778,3.3740458015267176,-0.26686656671664166,0.10044977511244378,-0.9865067466266866,
1.7494509657809746E12,8.391304347826086,1.0,8.17391304347826,4140.65934065934,2.0,2.4945054945054945,400.8810572687225,-24.427480916030532,1.0534351145038168,3.4198473282442747,-0.26836581709145424,0.10344827586206896,-0.9955022488755622,
1.7494509658005063E12,8.358695652173912,1.0108695652173914,8.152173913043478,4140.65934065934,2.0,2.493040293040293,401.1166617690273,-24.610687022900763,1.099236641221374,3.1908396946564883,-0.27136431784107945,0.09745127436281859,-0.9745127436281859,
1.749450965820038E12,8.369565217391305,1.0,8.141304347826086,4140.65934065934,2.0,2.493040293040293,401.1166617690273,-24.427480916030532,1.0381679389312977,3.32824427480916,-0.26686656671664166,0.08695652173913043,-0.9880059970014993,
1.7494509658395698E12,8.380434782608695,1.0,8.16304347826087,4140.65934065934,2.0,2.4915750915750916,401.3525433695972,-24.15267175572519,1.0534351145038168,3.3435114503816794,-0.2698650674662669,0.08995502248875561,-0.9790104947526237,
1.7494509658591016E12,8.369565217391305,1.0108695652173914,8.141304347826086,4114.285714285714,2.0,2.4915750915750916,401.3525433695972,-24.335877862595417,1.0534351145038168,3.5572519083969465,-0.2623688155922039,0.09745127436281859,-0.9820089955022488,
1.7494509658786335E12,8.380434782608695,0.9891304347826086,8.16304347826087,4140.65934065934,2.0,2.49010989010989,401.58870255957635,-24.076335877862594,0.9465648854961831,3.5877862595419847,-0.27436281859070466,0.10494752623688156,-0.985007496251874,
1.7494509658981653E12,8.391304347826086,1.0,8.16304347826087,4140.65934065934,2.0,2.49010989010989,401.58870255957635,-24.30534351145038,0.9007633587786259,3.450381679389313,-0.27136431784107945,0.10194902548725637,-0.985007496251874,
1.749450965917697E12,8.402173913043478,1.0108695652173914,8.152173913043478,4131.868131868132,2.0,2.49010989010989,401.58870255957635,-24.27480916030534,0.5801526717557252,3.236641221374046,-0.26686656671664166,0.09745127436281859,-0.9700149925037481,
1.7494509659372288E12,8.402173913043478,1.0,8.152173913043478,4140.65934065934,2.0,2.49010989010989,401.58870255957635,-24.106870229007633,1.0687022900763359,3.3893129770992365,-0.26686656671664166,0.08845577211394302,-0.9880059970014993,
1.7494509659567605E12,8.369565217391305,0.9782608695652174,8.16304347826087,4140.65934065934,2.0,2.49010989010989,401.58870255957635,-24.396946564885496,1.0534351145038168,3.3435114503816794,-0.2653673163418291,0.095952023988006,-0.9730134932533733,
1.7494509659762922E12,8.391304347826086,1.0,8.17391304347826,4139.194139194139,2.0,2.4886446886446887,401.8251398292611,-24.076335877862594,1.0381679389312977,3.2519083969465647,-0.27436281859070466,0.10194902548725637,-0.9775112443778111,
1.749450965995824E12,8.391304347826086,0.9891304347826086,8.16304347826087,4139.194139194139,2.0,2.4871794871794872,402.06185567010306,-24.259541984732824,0.7786259541984732,3.297709923664122,-0.26686656671664166,0.10194902548725637,-0.985007496251874,
1.7494509660153557E12,8.402173913043478,0.9891304347826086,8.141304347826086,4114.285714285714,2.0,2.4871794871794872,402.06185567010306,-24.534351145038165,0.549618320610687,3.129770992366412,-0.2653673163418291,0.10644677661169415,-0.9880059970014993,
1.7494509660348875E12,8.380434782608695,1.0,8.152173913043478,4104.029304029304,2.0,2.4871794871794872,402.06185567010306,-24.30534351145038,0.8091603053435115,3.0839694656488548,-0.2638680659670165,0.08845577211394302,-0.9895052473763118,
1.7494509660544192E12,8.369565217391305,1.0,8.119565217391305,4139.194139194139,2.0,2.4871794871794872,402.06185567010306,-24.458015267175572,0.7022900763358778,2.946564885496183,-0.26686656671664166,0.0944527736131934,-0.9835082458770614,
1.749450966073951E12,8.391304347826086,1.0326086956521738,8.152173913043478,4131.868131868132,2.0,2.4871794871794872,402.06185567010306,-23.938931297709924,0.6412213740458015,3.16030534351145,-0.2608695652173913,0.08695652173913043,-0.9820089955022488,
1.7494509660934827E12,8.391304347826086,0.9891304347826086,8.17391304347826,4139.194139194139,2.0,2.4857142857142858,402.2988505747126,-24.48854961832061,0.6564885496183206,2.8396946564885495,-0.27136431784107945,0.10494752623688156,-0.9805097451274363,
1.7494509661130144E12,8.347826086956522,1.0326086956521738,8.184782608695652,4139.194139194139,2.0,2.4857142857142858,402.2988505747126,-24.564885496183205,0.8702290076335878,2.7938931297709924,-0.26836581709145424,0.09745127436281859,-0.9745127436281859,
1.7494509661325461E12,8.358695652173912,1.0217391304347825,8.16304347826087,4139.194139194139,2.0,2.4842490842490843,402.5361250368623,-24.458015267175572,0.47328244274809156,2.778625954198473,-0.2788605697151424,0.10494752623688156,-0.9820089955022488,
1.749450966152078E12,8.402173913043478,1.0,8.141304347826086,4139.194139194139,2.0,2.4857142857142858,402.2988505747126,-24.763358778625953,-0.10687022900763359,2.8702290076335877,-0.26686656671664166,0.10494752623688156,-0.9805097451274363,
1.7494509661716096E12,8.41304347826087,1.0217391304347825,8.16304347826087,4115.750915750916,2.0,2.4842490842490843,402.5361250368623,-24.519083969465647,-0.0916030534351145,3.2061068702290076,-0.2623688155922039,0.0944527736131934,-0.985007496251874,
1.7494509661911414E12,8.434782608695652,1.0108695652173914,8.130434782608695,4140.65934065934,2.0,2.482783882783883,402.7736795514901,-24.0,0.2748091603053435,3.312977099236641,-0.2578710644677661,0.095952023988006,-0.9865067466266866,
1.749450966210673E12,8.402173913043478,1.0,8.152173913043478,4140.65934065934,2.0,2.482783882783883,402.7736795514901,-24.259541984732824,1.4351145038167938,3.801526717557252,-0.26836581709145424,0.09295352323838081,-0.985007496251874,
1.7494509662302048E12,8.380434782608695,1.0,8.130434782608695,4131.868131868132,2.0,2.482783882783883,402.7736795514901,-23.893129770992367,1.465648854961832,3.9236641221374042,-0.2593703148425787,0.10644677661169415,-0.9745127436281859,
1.7494509662497366E12,8.380434782608695,1.0,8.141304347826086,4140.65934065934,2.0,2.4813186813186814,403.0115146147033,-23.96946564885496,1.7404580152671756,3.8931297709923665,-0.2698650674662669,0.10644677661169415,-0.9760119940029984,
1.7494509662692683E12,8.41304347826087,0.9891304347826086,8.141304347826086,4140.65934065934,2.0,2.4813186813186814,403.0115146147033,-23.893129770992367,1.1908396946564885,3.465648854961832,-0.2653673163418291,0.10794602698650674,-0.9790104947526237,
1.7494509662888E12,8.391304347826086,1.0326086956521738,8.108695652173912,4140.65934065934,2.0,2.47985347985348,403.24963072378137,-24.259541984732824,1.2366412213740459,3.4045801526717554,-0.26836581709145424,0.0944527736131934,-0.9805097451274363,
1.7494509663083318E12,8.369565217391305,1.0217391304347825,8.152173913043478,4142.124542124542,2.0,2.47985347985348,403.24963072378137,-24.381679389312975,1.4045801526717556,3.49618320610687,-0.2653673163418291,0.10344827586206896,-0.9790104947526237,
1.7494509663278635E12,8.41304347826087,1.0,8.152173913043478,4115.750915750916,2.0,2.47985347985348,403.24963072378137,-24.671755725190838,1.618320610687023,3.7251908396946565,-0.27136431784107945,0.10044977511244378,-0.9745127436281859,
1.7494509663473953E12,8.380434782608695,1.0,8.141304347826086,4142.124542124542,2.0,2.4783882783882785,403.48802837718,-24.671755725190838,1.816793893129771,4.061068702290076,-0.2608695652173913,0.10194902548725637,-0.985007496251874,
1.749450966366927E12,8.391304347826086,1.0,8.152173913043478,4140.65934065934,2.0,2.4783882783882785,403.48802837718,-24.687022900763356,2.183206106870229,3.9083969465648853,-0.2608695652173913,0.10044977511244378,-0.9820089955022488,
1.7494509663864587E12,8.369565217391305,0.967391304347826,8.184782608695652,4131.868131868132,2.0,2.476923076923077,403.72670807453414,-24.50381679389313,2.564885496183206,4.549618320610687,-0.2638680659670165,0.10644677661169415,-0.9760119940029984,
1.7494509664059905E12,8.380434782608695,1.0,8.17391304347826,4140.65934065934,2.0,2.4754578754578755,403.9656703166617,-24.3206106870229,2.3206106870229006,4.091603053435114,-0.2698650674662669,0.12293853073463268,-0.9790104947526237,
1.7494509664255222E12,8.391304347826086,1.0108695652173914,8.152173913043478,4140.65934065934,2.0,2.4754578754578755,403.9656703166617,-24.3206106870229,2.015267175572519,4.290076335877862,-0.2653673163418291,0.09895052473763118,-0.9805097451274363,
1.749450966445054E12,8.347826086956522,1.0217391304347825,8.141304347826086,4140.65934065934,2.0,2.473992673992674,404.20491560556707,-24.244274809160306,1.984732824427481,4.259541984732825,-0.2593703148425787,0.09745127436281859,-0.9895052473763118,
1.7494509664645857E12,8.347826086956522,1.0,8.17391304347826,4133.333333333333,2.0,2.473992673992674,404.20491560556707,-24.015267175572518,1.8778625954198473,4.122137404580153,-0.26686656671664166,0.09295352323838081,-0.9820089955022488,
1.7494509664841174E12,8.358695652173912,1.0,8.17391304347826,4120.14652014652,2.0,2.473992673992674,404.20491560556707,-24.244274809160306,1.6946564885496183,3.877862595419847,-0.2653673163418291,0.10644677661169415,-0.9835082458770614,
1.7494509665036492E12,8.33695652173913,0.9782608695652174,8.195652173913043,4140.65934065934,2.0,2.472527472527473,404.4444444444444,-24.091603053435115,1.114503816793893,4.152671755725191,-0.2593703148425787,0.10194902548725637,-0.9775112443778111,
1.749450966523181E12,8.358695652173912,0.9891304347826086,8.184782608695652,4140.65934065934,2.0,2.472527472527473,404.4444444444444,-24.717557251908396,1.3129770992366412,3.801526717557252,-0.2593703148425787,0.12593703148425786,-0.9805097451274363,
1.749450966542713E12,8.347826086956522,0.9891304347826086,8.195652173913043,4131.868131868132,2.0,2.471062271062271,404.6842573376816,-24.793893129770993,1.129770992366412,3.6030534351145036,-0.26686656671664166,0.09895052473763118,-0.9790104947526237,
1.7494509665622446E12,8.380434782608695,0.9782608695652174,8.152173913043478,4102.5641025641025,2.0,2.471062271062271,404.6842573376816,-24.549618320610687,0.6259541984732824,3.465648854961832,-0.26686656671664166,0.08545727136431784,-0.9775112443778111,
1.7494509665817764E12,8.369565217391305,0.9891304347826086,8.16304347826087,4142.124542124542,2.0,2.4695970695970697,404.9243547908632,-24.595419847328245,0.9618320610687022,3.7557251908396947,-0.26686656671664166,0.11244377811094453,-0.9790104947526237,
1.749450966601308E12,8.369565217391305,0.9565217391304348,8.17391304347826,4139.194139194139,2.0,2.4681318681318682,405.1647373107747,-24.381679389312975,0.9312977099236641,3.49618320610687,-0.25487256371814093,0.10194902548725637,-0.9820089955022488,
1.7494509666208398E12,8.358695652173912,0.967391304347826,8.195652173913043,4140.65934065934,2.0,2.4681318681318682,405.1647373107747,-24.80916030534351,0.9465648854961831,3.3435114503816794,-0.2638680659670165,0.10044977511244378,-0.9805097451274363,
1.7494509666403716E12,8.326086956521738,0.9782608695652174,8.184782608695652,4114.285714285714,2.0,2.4681318681318682,405.1647373107747,-24.50381679389313,0.6412213740458015,3.465648854961832,-0.26836581709145424,0.10644677661169415,-0.9865067466266866,
1.7494509666599033E12,8.369565217391305,0.9891304347826086,8.206521739130434,4140.65934065934,2.0,2.4681318681318682,405.1647373107747,-24.396946564885496,0.6106870229007634,3.2061068702290076,-0.27136431784107945,0.08845577211394302,-0.9895052473763118,
1.749450966679435E12,8.380434782608695,0.9891304347826086,8.16304347826087,4139.194139194139,2.0,2.466666666666667,405.40540540540536,-24.48854961832061,0.6259541984732824,3.114503816793893,-0.272863568215892,0.1199400299850075,-0.9835082458770614,
1.7494509666989668E12,8.391304347826086,0.9891304347826086,8.17391304347826,4130.40293040293,2.0,2.466666666666667,405.40540540540536,-24.198473282442748,0.4580152671755725,2.916030534351145,-0.272863568215892,0.10794602698650674,-0.9760119940029984,
1.7494509667184985E12,8.369565217391305,1.0,8.152173913043478,4139.194139194139,2.0,2.466666666666667,405.40540540540536,-23.923664122137403,0.48854961832061067,3.0229007633587783,-0.2638680659670165,0.0944527736131934,-0.9760119940029984,
1.7494509667380303E12,8.380434782608695,0.967391304347826,8.17391304347826,4140.65934065934,2.0,2.4652014652014658,405.6463595839524,-24.13740458015267,0.48854961832061067,3.312977099236641,-0.2638680659670165,0.095952023988006,-0.985007496251874,
1.749450966757562E12,8.380434782608695,1.0,8.152173913043478,4139.194139194139,2.0,2.4652014652014658,405.6463595839524,-24.213740458015266,0.8854961832061068,3.312977099236641,-0.26686656671664166,0.10794602698650674,-0.9775112443778111,
1.7494509667770938E12,8.380434782608695,1.0,8.184782608695652,4139.194139194139,2.0,2.4652014652014658,405.6463595839524,-24.15267175572519,1.0534351145038168,2.8396946564885495,-0.2653673163418291,0.09895052473763118,-0.9775112443778111,
1.7494509667966255E12,8.369565217391305,0.9782608695652174,8.16304347826087,4124.542124542124,2.0,2.4652014652014658,405.6463595839524,-24.183206106870227,0.7175572519083969,3.129770992366412,-0.2578710644677661,0.09295352323838081,-0.9835082458770614,
1.7494509668161572E12,8.391304347826086,1.0,8.152173913043478,4140.65934065934,2.0,2.4652014652014658,405.6463595839524,-24.15267175572519,0.8854961832061068,2.8091603053435112,-0.2593703148425787,0.10044977511244378,-0.9865067466266866,
1.749450966835689E12,8.391304347826086,1.0108695652173914,8.152173913043478,4139.194139194139,2.0,2.4652014652014658,405.6463595839524,-24.183206106870227,0.7480916030534351,2.8702290076335877,-0.2623688155922039,0.09895052473763118,-0.9700149925037481,
1.7494509668552207E12,8.380434782608695,0.9891304347826086,8.130434782608695,4130.40293040293,2.0,2.463736263736264,405.88760035682424,-24.091603053435115,0.7786259541984732,3.4045801526717554,-0.2698650674662669,0.10044977511244378,-0.9820089955022488,
1.7494509668747524E12,8.380434782608695,1.0108695652173914,8.17391304347826,4140.65934065934,2.0,2.463736263736264,405.88760035682424,-24.47328244274809,0.9770992366412213,3.2061068702290076,-0.26686656671664166,0.10344827586206896,-0.9775112443778111,
1.7494509668942842E12,8.347826086956522,0.9891304347826086,8.184782608695652,4140.65934065934,2.0,2.463736263736264,405.88760035682424,-24.549618320610687,1.0687022900763359,3.0381679389312977,-0.2653673163418291,0.10794602698650674,-0.9895052473763118,
1.749450966913816E12,8.380434782608695,0.9782608695652174,8.184782608695652,4140.65934065934,2.0,2.463736263736264,405.88760035682424,-24.442748091603054,0.41221374045801523,3.2061068702290076,-0.2653673163418291,0.09295352323838081,-0.9805097451274363,
1.7494509669333477E12,8.391304347826086,0.967391304347826,8.16304347826087,4140.65934065934,2.0,2.4622710622710624,406.12912823564415,-24.595419847328245,0.8091603053435115,3.16030534351145,-0.2638680659670165,0.09745127436281859,-0.9775112443778111,
1.7494509669528794E12,8.41304347826087,0.9782608695652174,8.16304347826087,4115.750915750916,2.0,2.4622710622710624,406.12912823564415,-24.335877862595417,0.2748091603053435,3.0229007633587783,-0.26836581709145424,0.10344827586206896,-0.9820089955022488,
1.7494509669724111E12,8.358695652173912,1.0108695652173914,8.152173913043478,4140.65934065934,2.0,2.4622710622710624,406.12912823564415,-23.908396946564885,0.7786259541984732,2.9618320610687023,-0.2638680659670165,0.10344827586206896,-0.9775112443778111,
1.7494509669919429E12,8.391304347826086,1.0108695652173914,8.141304347826086,4140.65934065934,2.0,2.4622710622710624,406.12912823564415,-23.893129770992367,1.0229007633587786,3.236641221374046,-0.27436281859070466,0.10494752623688156,-0.9760119940029984,
1.7494509670114746E12,8.369565217391305,1.0,8.152173913043478,4131.868131868132,2.0,2.4622710622710624,406.12912823564415,-23.938931297709924,1.1755725190839694,3.679389312977099,-0.26836581709145424,0.10644677661169415,-0.9775112443778111,
1.7494509670310063E12,8.369565217391305,1.0326086956521738,8.119565217391305,4140.65934065934,2.0,2.460805860805861,406.3709437332539,-23.96946564885496,0.9465648854961831,3.7557251908396947,-0.2653673163418291,0.09745127436281859,-0.985007496251874,
1.749450967050538E12,8.402173913043478,1.0217391304347825,8.141304347826086,4142.124542124542,2.0,2.460805860805861,406.3709437332539,-24.290076335877863,0.9465648854961831,3.49618320610687,-0.27136431784107945,0.09295352323838081,-0.9820089955022488,
1.7494509670700698E12,8.402173913043478,1.0108695652173914,8.141304347826086,4139.194139194139,2.0,2.460805860805861,406.3709437332539,-24.793893129770993,0.916030534351145,3.5114503816793894,-0.2638680659670165,0.0944527736131934,-0.9745127436281859,
1.7494509670896016E12,8.391304347826086,0.9891304347826086,8.184782608695652,4140.65934065934,2.0,2.45934065934066,406.61304736371756,-25.175572519083968,0.9007633587786259,3.0076335877862594,-0.2653673163418291,0.10344827586206896,-0.9760119940029984,
1.7494509671091333E12,8.41304347826087,0.967391304347826,8.16304347826087,4115.750915750916,2.0,2.45934065934066,406.61304736371756,-25.43511450381679,1.282442748091603,3.801526717557252,-0.2608695652173913,0.10644677661169415,-0.9790104947526237,
1.749450967128665E12,8.369565217391305,0.9891304347826086,8.130434782608695,4140.65934065934,2.0,2.45934065934066,406.61304736371756,-25.083969465648853,1.648854961832061,3.480916030534351,-0.2638680659670165,0.10644677661169415,-0.9835082458770614,
1.7494509671481968E12,8.391304347826086,0.9891304347826086,8.16304347826087,4142.124542124542,2.0,2.45934065934066,406.61304736371756,-25.14503816793893,1.6335877862595418,3.83206106870229,-0.2653673163418291,0.09745127436281859,-0.9805097451274363,
1.7494509671677285E12,8.380434782608695,0.9782608695652174,8.152173913043478,4128.937728937729,2.0,2.457875457875458,406.8554396423249,-24.763358778625953,1.8625954198473282,3.5572519083969465,-0.272863568215892,0.08695652173913043,-0.9805097451274363,
1.7494509671872605E12,8.33695652173913,0.9891304347826086,8.152173913043478,4140.65934065934,2.0,2.457875457875458,406.8554396423249,-24.77862595419847,1.8778625954198473,4.030534351145038,-0.27136431784107945,0.09895052473763118,-0.992503748125937,
1.7494509672067922E12,8.358695652173912,1.0,8.141304347826086,4140.65934065934,2.0,2.456410256410256,407.098121085595,-24.80916030534351,1.2519083969465647,3.877862595419847,-0.2653673163418291,0.10344827586206896,-0.9805097451274363,
1.749450967226324E12,8.391304347826086,1.0217391304347825,8.141304347826086,4140.65934065934,2.0,2.456410256410256,407.098121085595,-24.732824427480914,1.2519083969465647,4.076335877862595,-0.2653673163418291,0.10644677661169415,-0.9895052473763118,
1.7494509672458557E12,8.380434782608695,0.9891304347826086,8.16304347826087,4142.124542124542,2.0,2.454945054945055,407.34109221128017,-24.549618320610687,1.1450381679389312,4.152671755725191,-0.26686656671664166,0.10344827586206896,-0.9805097451274363,
1.7494509672653875E12,8.358695652173912,0.9782608695652174,8.141304347826086,4115.750915750916,2.0,2.456410256410256,407.098121085595,-24.610687022900763,1.7099236641221374,4.305343511450381,-0.2563718140929535,0.12743628185907047,-0.9895052473763118,
1.7494509672849192E12,8.358695652173912,0.967391304347826,8.16304347826087,4102.5641025641025,2.0,2.454945054945055,407.34109221128017,-24.870229007633586,1.114503816793893,3.7557251908396947,-0.2578710644677661,0.10044977511244378,-0.9790104947526237,
1.749450967304451E12,8.369565217391305,0.967391304347826,8.16304347826087,4140.65934065934,2.0,2.4534798534798536,407.5843535383696,-24.870229007633586,1.1450381679389312,3.6946564885496183,-0.2698650674662669,0.10044977511244378,-0.9775112443778111,
1.7494509673239827E12,8.391304347826086,0.967391304347826,8.152173913043478,4128.937728937729,2.0,2.4534798534798536,407.5843535383696,-24.916030534351144,0.8854961832061068,3.3893129770992365,-0.2608695652173913,0.10194902548725637,-0.9880059970014993,
1.7494509673435144E12,8.369565217391305,0.9565217391304348,8.16304347826087,4140.65934065934,2.0,2.4534798534798536,407.5843535383696,-24.641221374045802,0.9007633587786259,3.068702290076336,-0.26836581709145424,0.10344827586206896,-0.9895052473763118,
1.7494509673630461E12,8.358695652173912,0.9782608695652174,8.16304347826087,4140.65934065934,2.0,2.452014652014652,407.8279055870929,-25.068702290076335,1.1755725190839694,3.49618320610687,-0.26836581709145424,0.095952023988006,-0.9865067466266866,
1.749450967382578E12,8.369565217391305,0.9782608695652174,8.184782608695652,4139.194139194139,2.0,2.452014652014652,407.8279055870929,-25.175572519083968,1.2519083969465647,3.7862595419847325,-0.26686656671664166,0.10044977511244378,-0.9835082458770614,
1.7494509674021096E12,8.358695652173912,0.9456521739130435,8.17391304347826,4139.194139194139,2.0,2.4505494505494503,408.07174887892376,-24.80916030534351,1.2061068702290076,3.7251908396946565,-0.2638680659670165,0.10044977511244378,-0.992503748125937,
1.7494509674216414E12,8.380434782608695,0.9565217391304348,8.152173913043478,4115.750915750916,2.0,2.452014652014652,407.8279055870929,-25.206106870229007,1.3435114503816794,3.969465648854962,-0.2653673163418291,0.09745127436281859,-0.9760119940029984,
1.749450967441173E12,8.358695652173912,0.9456521739130435,8.16304347826087,4137.728937728937,2.0,2.4505494505494503,408.07174887892376,-24.793893129770993,1.2213740458015268,3.709923664122137,-0.26836581709145424,0.10494752623688156,-0.9730134932533733,
1.7494509674607048E12,8.358695652173912,0.9456521739130435,8.17391304347826,4140.65934065934,2.0,2.4505494505494503,408.07174887892376,-24.50381679389313,0.9770992366412213,3.2061068702290076,-0.2623688155922039,0.10194902548725637,-0.9835082458770614,
1.7494509674802366E12,8.347826086956522,0.9782608695652174,8.17391304347826,4124.542124542124,2.0,2.4505494505494503,408.07174887892376,-24.458015267175572,1.129770992366412,3.2061068702290076,-0.2653673163418291,0.10794602698650674,-0.9805097451274363,
1.7494509674997683E12,8.358695652173912,0.967391304347826,8.16304347826087,4101.098901098901,2.0,2.4505494505494503,408.07174887892376,-24.366412213740457,0.8549618320610687,3.0534351145038165,-0.2638680659670165,0.09895052473763118,-0.9775112443778111,
1.7494509675193E12,8.380434782608695,0.967391304347826,8.17391304347826,4139.194139194139,2.0,2.4505494505494503,408.07174887892376,-24.076335877862594,1.2061068702290076,2.9618320610687023,-0.2638680659670165,0.0944527736131934,-0.9835082458770614,
1.7494509675388318E12,8.358695652173912,0.9891304347826086,8.152173913043478,4137.728937728937,2.0,2.4505494505494503,408.07174887892376,-24.35114503816794,0.732824427480916,3.4045801526717554,-0.2698650674662669,0.0944527736131934,-0.985007496251874,
1.7494509675583635E12,8.380434782608695,0.9891304347826086,8.152173913043478,4139.194139194139,2.0,2.4490842490842493,408.3158839365839,-24.290076335877863,0.4580152671755725,3.5877862595419847,-0.2638680659670165,0.0944527736131934,-0.9880059970014993,
1.7494509675778953E12,8.369565217391305,0.9891304347826086,8.16304347826087,4115.750915750916,2.0,2.4505494505494503,408.07174887892376,-24.748091603053435,1.129770992366412,3.3435114503816794,-0.2638680659670165,0.09745127436281859,-0.9790104947526237,
1.749450967597427E12,8.402173913043478,0.967391304347826,8.130434782608695,4140.65934065934,2.0,2.4490842490842493,408.3158839365839,-24.702290076335878,0.8549618320610687,3.282442748091603,-0.2788605697151424,0.10044977511244378,-0.985007496251874,
1.7494509676169587E12,8.358695652173912,0.9782608695652174,8.16304347826087,4139.194139194139,2.0,2.4505494505494503,408.07174887892376,-24.946564885496183,0.9465648854961831,3.5572519083969465,-0.2653673163418291,0.10494752623688156,-0.985007496251874,
1.7494509676364905E12,8.33695652173913,0.967391304347826,8.17391304347826,4124.542124542124,2.0,2.4490842490842493,408.3158839365839,-24.85496183206107,0.9312977099236641,3.282442748091603,-0.2698650674662669,0.10644677661169415,-0.9760119940029984,
1.7494509676560222E12,8.369565217391305,0.9782608695652174,8.152173913043478,4102.5641025641025,2.0,2.4505494505494503,408.07174887892376,-24.99236641221374,1.0381679389312977,2.9923664122137406,-0.27136431784107945,0.09295352323838081,-0.9880059970014993,
1.749450967675554E12,8.391304347826086,0.9347826086956521,8.152173913043478,4139.194139194139,2.0,2.4505494505494503,408.07174887892376,-24.748091603053435,0.5038167938931297,3.114503816793893,-0.2608695652173913,0.09895052473763118,-0.9790104947526237,
1.7494509676950857E12,8.369565217391305,0.967391304347826,8.16304347826087,4139.194139194139,2.0,2.4505494505494503,408.07174887892376,-24.83969465648855,0.7786259541984732,3.16030534351145,-0.26836581709145424,0.10194902548725637,-0.9805097451274363,
1.7494509677146174E12,8.380434782608695,0.9565217391304348,8.130434782608695,4142.124542124542,2.0,2.4505494505494503,408.07174887892376,-24.62595419847328,0.6106870229007634,3.4198473282442747,-0.2638680659670165,0.10194902548725637,-0.985007496251874,
1.7494509677341492E12,8.391304347826086,0.967391304347826,8.16304347826087,4117.216117216117,2.0,2.4490842490842493,408.3158839365839,-24.564885496183205,0.8854961832061068,3.679389312977099,-0.27436281859070466,0.10344827586206896,-0.9745127436281859,
1.749450967753681E12,8.380434782608695,0.967391304347826,8.152173913043478,4140.65934065934,2.0,2.4505494505494503,408.07174887892376,-24.671755725190838,0.7786259541984732,3.679389312977099,-0.26836581709145424,0.09895052473763118,-0.9805097451274363,
1.7494509677732126E12,8.358695652173912,0.967391304347826,8.108695652173912,4142.124542124542,2.0,2.4490842490842493,408.3158839365839,-24.549618320610687,1.0534351145038168,3.3587786259541983,-0.26686656671664166,0.10344827586206896,-0.9730134932533733,
1.7494509677927444E12,8.380434782608695,0.9565217391304348,8.152173913043478,4124.542124542124,2.0,2.4505494505494503,408.07174887892376,-24.65648854961832,1.0687022900763359,3.480916030534351,-0.26836581709145424,0.09745127436281859,-0.985007496251874,
1.7494509678122761E12,8.380434782608695,0.967391304347826,8.184782608695652,4142.124542124542,2.0,2.4490842490842493,408.3158839365839,-24.458015267175572,1.129770992366412,3.3587786259541983,-0.2653673163418291,0.10794602698650674,-0.9820089955022488,
1.7494509678318079E12,8.369565217391305,0.967391304347826,8.141304347826086,4140.65934065934,2.0,2.4490842490842493,408.3158839365839,-24.687022900763356,1.129770992366412,3.801526717557252,-0.26686656671664166,0.10344827586206896,-0.9835082458770614,
1.7494509678513398E12,8.391304347826086,0.9347826086956521,8.141304347826086,4140.65934065934,2.0,2.4490842490842493,408.3158839365839,-24.80916030534351,0.916030534351145,3.847328244274809,-0.2653673163418291,0.10794602698650674,-0.9895052473763118,
1.7494509678708716E12,8.369565217391305,0.9565217391304348,8.152173913043478,4140.65934065934,2.0,2.4490842490842493,408.3158839365839,-24.396946564885496,1.7099236641221374,3.5877862595419847,-0.2623688155922039,0.10194902548725637,-0.9820089955022488,
1.7494509678904033E12,8.369565217391305,0.967391304347826,8.16304347826087,4117.216117216117,2.0,2.4490842490842493,408.3158839365839,-24.549618320610687,0.8702290076335878,3.83206106870229,-0.26836581709145424,0.0914542728635682,-0.9895052473763118,
1.749450967909935E12,8.347826086956522,0.9565217391304348,8.184782608695652,4142.124542124542,2.0,2.4490842490842493,408.3158839365839,-24.213740458015266,1.2213740458015268,3.5725190839694654,-0.2593703148425787,0.09895052473763118,-0.9790104947526237,
1.7494509679294668E12,8.380434782608695,0.9456521739130435,8.17391304347826,4140.65934065934,2.0,2.4490842490842493,408.3158839365839,-24.366412213740457,0.7938931297709924,3.4198473282442747,-0.2653673163418291,0.12293853073463268,-0.9835082458770614,
1.7494509679489985E12,8.358695652173912,0.9782608695652174,8.16304347826087,4123.076923076923,2.0,2.447619047619048,408.56031128404663,-24.412213740458014,0.9465648854961831,3.6946564885496183,-0.27136431784107945,0.11094452773613193,-0.9835082458770614,
1.7494509679685303E12,8.369565217391305,0.9782608695652174,8.130434782608695,4142.124542124542,2.0,2.447619047619048,408.56031128404663,-24.366412213740457,0.9465648854961831,3.9541984732824424,-0.26836581709145424,0.10794602698650674,-0.9895052473763118,
1.749450967988062E12,8.391304347826086,0.9782608695652174,8.152173913043478,4140.65934065934,2.0,2.447619047619048,408.56031128404663,-24.061068702290076,1.0687022900763359,3.969465648854962,-0.2698650674662669,0.11094452773613193,-0.9820089955022488,
1.7494509680075938E12,8.347826086956522,0.9565217391304348,8.17391304347826,4140.65934065934,2.0,2.447619047619048,408.56031128404663,-24.213740458015266,1.4961832061068703,3.6030534351145036,-0.26686656671664166,0.0914542728635682,-0.9820089955022488,
1.7494509680271255E12,8.358695652173912,0.9347826086956521,8.17391304347826,4140.65934065934,2.0,2.447619047619048,408.56031128404663,-23.877862595419845,1.0687022900763359,3.8167938931297707,-0.2698650674662669,0.10194902548725637,-0.9910044977511244,
1.7494509680466572E12,8.369565217391305,0.9456521739130435,8.16304347826087,4117.216117216117,2.0,2.447619047619048,408.56031128404663,-24.0,1.2061068702290076,3.6030534351145036,-0.2638680659670165,0.10194902548725637,-0.9835082458770614,
1.749450968066189E12,8.369565217391305,0.9456521739130435,8.16304347826087,4142.124542124542,2.0,2.447619047619048,408.56031128404663,-23.801526717557252,0.6717557251908397,3.129770992366412,-0.2653673163418291,0.11244377811094453,-0.9820089955022488,
1.7494509680857207E12,8.369565217391305,0.9347826086956521,8.16304347826087,4140.65934065934,2.0,2.4461538461538463,408.80503144654085,-23.832061068702288,0.6412213740458015,3.4198473282442747,-0.27436281859070466,0.10644677661169415,-0.9775112443778111,
1.7494509681052524E12,8.369565217391305,0.9456521739130435,8.17391304347826,4121.611721611721,2.0,2.4461538461538463,408.80503144654085,-23.526717557251906,0.4427480916030534,3.3435114503816794,-0.26836581709145424,0.10644677661169415,-0.9775112443778111,
1.7494509681247842E12,8.380434782608695,0.967391304347826,8.16304347826087,4140.65934065934,2.0,2.4461538461538463,408.80503144654085,-23.374045801526716,0.7786259541984732,3.5725190839694654,-0.26836581709145424,0.0944527736131934,-0.9865067466266866,
1.749450968144316E12,8.41304347826087,0.9239130434782609,8.16304347826087,4140.65934065934,2.0,2.444688644688645,409.05004495055437,-23.267175572519083,0.916030534351145,3.4198473282442747,-0.26836581709145424,0.10044977511244378,-0.9790104947526237,
1.7494509681638477E12,8.369565217391305,0.9456521739130435,8.16304347826087,4139.194139194139,2.0,2.444688644688645,409.05004495055437,-23.099236641221374,1.1755725190839694,3.6488549618320607,-0.2608695652173913,0.10044977511244378,-0.9760119940029984,
1.7494509681833794E12,8.380434782608695,0.967391304347826,8.16304347826087,4123.076923076923,2.0,2.444688644688645,409.05004495055437,-22.687022900763356,1.2366412213740459,3.4045801526717554,-0.26836581709145424,0.09745127436281859,-0.9790104947526237,
1.7494509682029111E12,8.380434782608695,0.967391304347826,8.17391304347826,4115.750915750916,2.0,2.444688644688645,409.05004495055437,-23.297709923664122,1.129770992366412,3.1755725190839694,-0.272863568215892,0.10494752623688156,-0.9805097451274363,
1.7494509682224429E12,8.41304347826087,0.9782608695652174,8.152173913043478,4140.65934065934,2.0,2.443223443223443,409.2953523238381,-23.022900763358777,1.4198473282442747,3.3740458015267176,-0.2623688155922039,0.09895052473763118,-0.9775112443778111,
1.7494509682419746E12,8.380434782608695,1.0,8.152173913043478,4139.194139194139,2.0,2.443223443223443,409.2953523238381,-23.022900763358777,1.8625954198473282,3.4045801526717554,-0.2698650674662669,0.09295352323838081,-0.9790104947526237,
1.7494509682615063E12,8.358695652173912,0.9891304347826086,8.141304347826086,4120.14652014652,2.0,2.443223443223443,409.2953523238381,-23.297709923664122,1.8473282442748091,3.099236641221374,-0.26836581709145424,0.10194902548725637,-0.9820089955022488,
1.749450968281038E12,8.347826086956522,1.0,8.16304347826087,4142.124542124542,2.0,2.443223443223443,409.2953523238381,-23.068702290076335,1.4961832061068703,3.633587786259542,-0.26686656671664166,0.095952023988006,-0.9790104947526237,
1.7494509683005698E12,8.358695652173912,1.0,8.17391304347826,4139.194139194139,2.0,2.441758241758242,409.5409540954095,-23.404580152671755,1.6335877862595418,3.4045801526717554,-0.2623688155922039,0.08845577211394302,-0.9805097451274363,
1.7494509683201016E12,8.380434782608695,0.967391304347826,8.17391304347826,4139.194139194139,2.0,2.441758241758242,409.5409540954095,-23.34351145038168,1.4351145038167938,3.2213740458015265,-0.26836581709145424,0.11394302848575712,-0.9805097451274363,
1.7494509683396333E12,8.358695652173912,1.0,8.16304347826087,4140.65934065934,2.0,2.441758241758242,409.5409540954095,-23.404580152671755,1.2671755725190839,2.946564885496183,-0.272863568215892,0.10344827586206896,-0.9730134932533733,
1.749450968359165E12,8.380434782608695,1.0217391304347825,8.152173913043478,4117.216117216117,2.0,2.441758241758242,409.5409540954095,-23.587786259541982,1.4198473282442747,2.610687022900763,-0.2623688155922039,0.10794602698650674,-0.9805097451274363,
1.7494509683786968E12,8.347826086956522,1.0108695652173914,8.16304347826087,4140.65934065934,2.0,2.441758241758242,409.5409540954095,-23.877862595419845,1.2671755725190839,2.5343511450381677,-0.2638680659670165,0.10344827586206896,-0.9790104947526237,
1.7494509683982285E12,8.358695652173912,1.0326086956521738,8.17391304347826,4140.65934065934,2.0,2.441758241758242,409.5409540954095,-23.938931297709924,1.3282442748091603,2.4732824427480917,-0.2698650674662669,0.10044977511244378,-0.9790104947526237,
1.7494509684177603E12,8.380434782608695,1.0217391304347825,8.184782608695652,4120.14652014652,2.0,2.441758241758242,409.5409540954095,-23.96946564885496,1.1450381679389312,2.6717557251908395,-0.2653673163418291,0.0914542728635682,-0.9865067466266866,
1.749450968437292E12,8.369565217391305,1.0,8.16304347826087,4142.124542124542,2.0,2.441758241758242,409.5409540954095,-24.381679389312975,1.297709923664122,2.778625954198473,-0.2608695652173913,0.10344827586206896,-0.9835082458770614,
1.7494509684568237E12,8.402173913043478,0.9891304347826086,8.17391304347826,4142.124542124542,2.0,2.441758241758242,409.5409540954095,-24.13740458015267,1.3740458015267174,2.717557251908397,-0.272863568215892,0.095952023988006,-0.9760119940029984,
1.7494509684763555E12,8.391304347826086,0.9782608695652174,8.184782608695652,4139.194139194139,2.0,2.441758241758242,409.5409540954095,-24.030534351145036,1.8015267175572518,2.7938931297709924,-0.2563718140929535,0.10194902548725637,-0.9880059970014993,
1.7494509684958875E12,8.33695652173913,1.0108695652173914,8.184782608695652,4140.65934065934,2.0,2.441758241758242,409.5409540954095,-23.64885496183206,1.7099236641221374,2.8244274809160306,-0.2638680659670165,0.10044977511244378,-0.9775112443778111,
1.7494509685154192E12,8.347826086956522,1.0326086956521738,8.195652173913043,4118.681318681319,2.0,2.441758241758242,409.5409540954095,-23.801526717557252,1.3740458015267174,2.732824427480916,-0.27136431784107945,0.09745127436281859,-0.9805097451274363,
1.749450968534951E12,8.347826086956522,1.0217391304347825,8.184782608695652,4104.029304029304,2.0,2.441758241758242,409.5409540954095,-24.015267175572518,1.465648854961832,2.8396946564885495,-0.27136431784107945,0.09295352323838081,-0.9745127436281859,
1.7494509685544827E12,8.347826086956522,1.0217391304347825,8.17391304347826,4140.65934065934,2.0,2.441758241758242,409.5409540954095,-23.81679389312977,1.465648854961832,2.931297709923664,-0.2698650674662669,0.10344827586206896,-0.9730134932533733,
1.7494509685740144E12,8.369565217391305,1.0434782608695652,8.16304347826087,4118.681318681319,2.0,2.441758241758242,409.5409540954095,-24.0,1.2366412213740459,2.732824427480916,-0.26686656671664166,0.10494752623688156,-0.9760119940029984,
1.7494509685935461E12,8.347826086956522,1.0326086956521738,8.16304347826087,4142.124542124542,2.0,2.4402930402930405,409.78685079555686,-24.15267175572519,0.9618320610687022,3.16030534351145,-0.26686656671664166,0.10344827586206896,-0.9910044977511244,
1.749450968613078E12,8.358695652173912,1.0217391304347825,8.184782608695652,4140.65934065934,2.0,2.4402930402930405,409.78685079555686,-23.862595419847327,1.099236641221374,3.312977099236641,-0.27436281859070466,0.10194902548725637,-0.9805097451274363,
1.7494509686326096E12,8.380434782608695,1.0326086956521738,8.206521739130434,4140.65934065934,2.0,2.4402930402930405,409.78685079555686,-24.412213740458014,1.6335877862595418,3.6488549618320607,-0.2653673163418291,0.095952023988006,-0.985007496251874,
1.7494509686521414E12,8.326086956521738,1.0217391304347825,8.195652173913043,4140.65934065934,2.0,2.441758241758242,409.5409540954095,-24.198473282442748,1.2366412213740459,3.16030534351145,-0.27136431784107945,0.08695652173913043,-0.9745127436281859,
1.749450968671673E12,8.315217391304348,1.0326086956521738,8.206521739130434,4120.14652014652,2.0,2.4402930402930405,409.78685079555686,-24.259541984732824,0.6412213740458015,3.0076335877862594,-0.2638680659670165,0.095952023988006,-0.9790104947526237,
1.7494509686912048E12,8.33695652173913,1.0434782608695652,8.206521739130434,4140.65934065934,2.0,2.4402930402930405,409.78685079555686,-24.13740458015267,0.07633587786259542,3.129770992366412,-0.2623688155922039,0.095952023988006,-0.9820089955022488,
1.7494509687107366E12,8.33695652173913,1.0543478260869565,8.206521739130434,4140.65934065934,2.0,2.4402930402930405,409.78685079555686,-24.16793893129771,0.41221374045801523,3.068702290076336,-0.26836581709145424,0.09895052473763118,-0.9805097451274363,
1.7494509687302683E12,8.380434782608695,1.065217391304348,8.195652173913043,4118.681318681319,2.0,2.4402930402930405,409.78685079555686,-24.15267175572519,0.5038167938931297,3.709923664122137,-0.26686656671664166,0.10044977511244378,-0.9835082458770614,
1.7494509687498E12,8.358695652173912,1.0434782608695652,8.17391304347826,4140.65934065934,2.0,2.438827838827839,410.0330429558426,-24.15267175572519,0.6564885496183206,3.679389312977099,-0.2593703148425787,0.09745127436281859,-0.985007496251874,
1.7494509687693318E12,8.358695652173912,1.0434782608695652,8.184782608695652,4140.65934065934,2.0,2.438827838827839,410.0330429558426,-24.50381679389313,0.9312977099236641,3.847328244274809,-0.2638680659670165,0.0944527736131934,-0.9790104947526237,
1.7494509687888635E12,8.380434782608695,1.0434782608695652,8.16304347826087,4137.728937728937,2.0,2.438827838827839,410.0330429558426,-24.641221374045802,0.7022900763358778,3.3435114503816794,-0.2653673163418291,0.09295352323838081,-0.9820089955022488,
1.7494509688083953E12,8.369565217391305,1.0217391304347825,8.184782608695652,4114.285714285714,2.0,2.438827838827839,410.0330429558426,-24.9618320610687,1.2366412213740459,3.5267175572519083,-0.2638680659670165,0.10044977511244378,-0.9895052473763118,
1.749450968827927E12,8.391304347826086,1.0434782608695652,8.184782608695652,4120.14652014652,2.0,2.438827838827839,410.0330429558426,-24.885496183206104,0.9465648854961831,3.2061068702290076,-0.27136431784107945,0.10044977511244378,-0.9865067466266866,
1.7494509688474587E12,8.402173913043478,1.0326086956521738,8.17391304347826,4139.194139194139,2.0,2.437362637362637,410.2795311091073,-24.885496183206104,0.9465648854961831,3.2061068702290076,-0.27136431784107945,0.11244377811094453,-0.9745127436281859,
1.7494509688669905E12,8.347826086956522,1.0434782608695652,8.16304347826087,4139.194139194139,2.0,2.437362637362637,410.2795311091073,-24.732824427480914,1.2671755725190839,3.3587786259541983,-0.2593703148425787,0.10644677661169415,-0.9775112443778111,
1.7494509688865222E12,8.358695652173912,1.0217391304347825,8.184782608695652,4117.216117216117,2.0,2.437362637362637,410.2795311091073,-24.793893129770993,1.3282442748091603,3.4198473282442747,-0.26836581709145424,0.1199400299850075,-0.9820089955022488,
1.749450968906054E12,8.358695652173912,1.0217391304347825,8.206521739130434,4140.65934065934,2.0,2.435897435897436,410.5263157894737,-24.900763358778626,1.0229007633587786,3.6488549618320607,-0.26686656671664166,0.095952023988006,-0.9835082458770614,
1.7494509689255857E12,8.358695652173912,1.0108695652173914,8.184782608695652,4139.194139194139,2.0,2.435897435897436,410.5263157894737,-24.687022900763356,0.7786259541984732,3.5114503816793894,-0.27136431784107945,0.0914542728635682,-0.9790104947526237,
1.7494509689451174E12,8.380434782608695,1.0217391304347825,8.184782608695652,4139.194139194139,2.0,2.435897435897436,410.5263157894737,-24.381679389312975,0.7633587786259541,3.5877862595419847,-0.2698650674662669,0.095952023988006,-0.9790104947526237,
1.7494509689646492E12,8.369565217391305,1.0326086956521738,8.16304347826087,4139.194139194139,2.0,2.435897435897436,410.5263157894737,-24.290076335877863,0.8091603053435115,3.5877862595419847,-0.26836581709145424,0.10494752623688156,-0.9790104947526237,
1.749450968984181E12,8.369565217391305,1.0217391304347825,8.195652173913043,4123.076923076923,2.0,2.435897435897436,410.5263157894737,-24.030534351145036,0.9923664122137404,3.6946564885496183,-0.26836581709145424,0.10794602698650674,-0.9880059970014993,
1.7494509690037126E12,8.369565217391305,1.0326086956521738,8.195652173913043,4140.65934065934,2.0,2.434432234432234,410.7733975323503,-24.16793893129771,1.129770992366412,3.6030534351145036,-0.26836581709145424,0.10344827586206896,-0.9880059970014993,
1.7494509690232444E12,8.358695652173912,1.0108695652173914,8.195652173913043,4140.65934065934,2.0,2.434432234432234,410.7733975323503,-24.15267175572519,1.0076335877862594,3.66412213740458,-0.2638680659670165,0.0914542728635682,-0.9820089955022488,
1.7494509690427761E12,8.33695652173913,1.0543478260869565,8.184782608695652,4117.216117216117,2.0,2.434432234432234,410.7733975323503,-24.13740458015267,1.282442748091603,3.465648854961832,-0.2623688155922039,0.095952023988006,-0.985007496251874,
1.7494509690623079E12,8.369565217391305,1.0108695652173914,8.184782608695652,4142.124542124542,2.0,2.4329670329670328,411.02077687443546,-24.549618320610687,0.9007633587786259,3.3740458015267176,-0.2608695652173913,0.0944527736131934,-0.9700149925037481,
1.7494509690818396E12,8.358695652173912,1.0326086956521738,8.206521739130434,4140.65934065934,2.0,2.4329670329670328,411.02077687443546,-24.564885496183205,0.8549618320610687,3.32824427480916,-0.272863568215892,0.10344827586206896,-0.985007496251874,
1.7494509691013713E12,8.391304347826086,1.0326086956521738,8.152173913043478,4139.194139194139,2.0,2.4329670329670328,411.02077687443546,-24.290076335877863,0.8244274809160305,3.1908396946564883,-0.27136431784107945,0.09895052473763118,-0.9790104947526237,
1.749450969120903E12,8.369565217391305,1.0217391304347825,8.184782608695652,4109.89010989011,2.0,2.4315018315018313,411.26845435372104,-24.030534351145036,0.8549618320610687,3.129770992366412,-0.26836581709145424,0.10344827586206896,-0.9760119940029984,
1.7494509691404348E12,8.358695652173912,1.0434782608695652,8.184782608695652,4139.194139194139,2.0,2.4315018315018313,411.26845435372104,-24.519083969465647,0.366412213740458,3.129770992366412,-0.2638680659670165,0.0914542728635682,-0.9790104947526237,
1.7494509691599668E12,8.358695652173912,1.0434782608695652,8.17391304347826,4140.65934065934,2.0,2.4315018315018313,411.26845435372104,-24.946564885496183,0.549618320610687,2.9770992366412212,-0.2653673163418291,0.08995502248875561,-0.9790104947526237,
1.7494509691794985E12,8.380434782608695,1.076086956521739,8.141304347826086,4140.65934065934,2.0,2.4315018315018313,411.26845435372104,-25.022900763358777,0.15267175572519084,3.49618320610687,-0.2623688155922039,0.10194902548725637,-0.9820089955022488,
1.7494509691990303E12,8.402173913043478,1.0326086956521738,8.17391304347826,4117.216117216117,2.0,2.434432234432234,410.7733975323503,-25.221374045801525,0.8244274809160305,3.7709923664122136,-0.272863568215892,0.10044977511244378,-0.9775112443778111,
1.749450969218562E12,8.391304347826086,1.0326086956521738,8.184782608695652,4142.124542124542,2.0,2.434432234432234,410.7733975323503,-24.9618320610687,1.0381679389312977,3.618320610687023,-0.2608695652173913,0.10344827586206896,-0.9805097451274363,
1.7494509692380938E12,8.358695652173912,1.0326086956521738,8.195652173913043,4142.124542124542,2.0,2.435897435897436,410.5263157894737,-25.00763358778626,1.297709923664122,3.3893129770992365,-0.2608695652173913,0.1169415292353823,-0.9790104947526237,
1.7494509692576255E12,8.369565217391305,1.0217391304347825,8.17391304347826,4140.65934065934,2.0,2.434432234432234,410.7733975323503,-24.763358778625953,0.916030534351145,3.3893129770992365,-0.2608695652173913,0.09745127436281859,-0.9775112443778111,
1.7494509692771572E12,8.369565217391305,1.0217391304347825,8.17391304347826,4140.65934065934,2.0,2.434432234432234,410.7733975323503,-24.870229007633586,0.2748091603053435,3.068702290076336,-0.2653673163418291,0.12143928035982009,-0.9820089955022488,
1.749450969296689E12,8.391304347826086,1.0217391304347825,8.184782608695652,4128.937728937729,2.0,2.434432234432234,410.7733975323503,-24.870229007633586,0.41221374045801523,3.5114503816793894,-0.2593703148425787,0.095952023988006,-0.9865067466266866,
1.7494509693162207E12,8.391304347826086,1.0217391304347825,8.152173913043478,4140.65934065934,2.0,2.434432234432234,410.7733975323503,-24.564885496183205,0.564885496183206,3.32824427480916,-0.2593703148425787,0.11094452773613193,-0.9730134932533733,
1.7494509693357524E12,8.369565217391305,1.0,8.141304347826086,4140.65934065934,2.0,2.434432234432234,410.7733975323503,-24.47328244274809,0.8091603053435115,3.6488549618320607,-0.2593703148425787,0.10794602698650674,-0.9790104947526237,
1.7494509693552842E12,8.380434782608695,0.9782608695652174,8.16304347826087,4117.216117216117,2.0,2.434432234432234,410.7733975323503,-24.27480916030534,0.732824427480916,4.152671755725191,-0.2698650674662669,0.10494752623688156,-0.985007496251874,
1.749450969374816E12,8.391304347826086,1.0217391304347825,8.17391304347826,4140.65934065934,2.0,2.434432234432234,410.7733975323503,-24.259541984732824,1.282442748091603,4.33587786259542,-0.26686656671664166,0.09895052473763118,-0.9805097451274363,
1.7494509693943477E12,8.369565217391305,1.0108695652173914,8.184782608695652,4140.65934065934,2.0,2.434432234432234,410.7733975323503,-24.412213740458014,1.450381679389313,4.198473282442748,-0.27136431784107945,0.12743628185907047,-0.9775112443778111,
1.7494509694138794E12,8.358695652173912,1.0326086956521738,8.16304347826087,4139.194139194139,2.0,2.434432234432234,410.7733975323503,-24.458015267175572,1.7251908396946565,4.1679389312977095,-0.26686656671664166,0.08995502248875561,-0.9865067466266866,
1.7494509694334111E12,8.369565217391305,1.0434782608695652,8.16304347826087,4140.65934065934,2.0,2.434432234432234,410.7733975323503,-24.519083969465647,1.8015267175572518,4.198473282442748,-0.25487256371814093,0.10344827586206896,-0.9760119940029984,
1.7494509694529429E12,8.369565217391305,1.0326086956521738,8.16304347826087,4140.65934065934,2.0,2.434432234432234,410.7733975323503,-24.885496183206104,1.4045801526717556,4.290076335877862,-0.2638680659670165,0.10794602698650674,-0.9820089955022488,
1.7494509694724746E12,8.380434782608695,1.0543478260869565,8.16304347826087,4139.194139194139,2.0,2.434432234432234,410.7733975323503,-25.267175572519083,1.9236641221374045,4.488549618320611,-0.26836581709145424,0.10644677661169415,-0.985007496251874,
1.7494509694920063E12,8.369565217391305,1.0326086956521738,8.17391304347826,4140.65934065934,2.0,2.434432234432234,410.7733975323503,-25.46564885496183,2.045801526717557,4.381679389312977,-0.26836581709145424,0.11244377811094453,-0.9880059970014993,
1.749450969511538E12,8.33695652173913,0.9891304347826086,8.206521739130434,4117.216117216117,2.0,2.434432234432234,410.7733975323503,-25.404580152671755,2.0763358778625953,4.381679389312977,-0.27436281859070466,0.0944527736131934,-0.9820089955022488,
1.7494509695310698E12,8.358695652173912,0.9565217391304348,8.17391304347826,4142.124542124542,2.0,2.434432234432234,410.7733975323503,-25.31297709923664,1.6793893129770991,4.152671755725191,-0.2653673163418291,0.08845577211394302,-0.9805097451274363,
1.7494509695506016E12,8.347826086956522,0.967391304347826,8.184782608695652,4140.65934065934,2.0,2.4329670329670328,411.02077687443546,-24.702290076335878,1.3740458015267174,3.877862595419847,-0.2593703148425787,0.09295352323838081,-0.9790104947526237,
1.7494509695701333E12,8.326086956521738,0.967391304347826,8.206521739130434,4139.194139194139,2.0,2.4329670329670328,411.02077687443546,-24.77862595419847,1.3435114503816794,4.2748091603053435,-0.27436281859070466,0.09745127436281859,-0.9805097451274363,
1.749450969589665E12,8.347826086956522,0.9782608695652174,8.228260869565217,4139.194139194139,2.0,2.4329670329670328,411.02077687443546,-24.30534351145038,1.5419847328244274,4.488549618320611,-0.2638680659670165,0.10044977511244378,-0.9820089955022488,
1.7494509696091968E12,8.347826086956522,0.9782608695652174,8.119565217391305,4131.868131868132,2.0,2.4329670329670328,411.02077687443546,-24.47328244274809,0.7786259541984732,4.015267175572519,-0.2653673163418291,0.10044977511244378,-0.9835082458770614,
1.7494509696287285E12,8.33695652173913,1.0326086956521738,8.152173913043478,4137.728937728937,2.0,2.4329670329670328,411.02077687443546,-24.35114503816794,0.8244274809160305,5.068702290076335,-0.2638680659670165,0.0914542728635682,-0.9835082458770614,
1.7494509696482603E12,8.456521739130434,0.9782608695652174,8.152173913043478,4140.65934065934,2.0,2.4315018315018313,411.26845435372104,-24.47328244274809,1.4198473282442747,5.465648854961832,-0.2653673163418291,0.095952023988006,-0.9865067466266866,
1.749450969667792E12,8.347826086956522,0.9891304347826086,8.195652173913043,4115.750915750916,2.0,2.4315018315018313,411.26845435372104,-24.641221374045802,2.549618320610687,5.374045801526718,-0.272863568215892,0.08995502248875561,-0.9895052473763118,
1.7494509696873237E12,8.293478260869565,0.9782608695652174,8.16304347826087,4142.124542124542,2.0,2.4300366300366303,411.51643050949656,-24.763358778625953,2.0763358778625953,5.374045801526718,-0.2623688155922039,0.09745127436281859,-0.9790104947526237,
1.7494509697068555E12,8.380434782608695,0.967391304347826,8.16304347826087,4139.194139194139,2.0,2.4315018315018313,411.26845435372104,-24.366412213740457,1.8931297709923662,5.572519083969466,-0.26686656671664166,0.10194902548725637,-0.9835082458770614,
1.7494509697263872E12,8.391304347826086,0.967391304347826,8.206521739130434,4139.194139194139,2.0,2.4300366300366303,411.51643050949656,-25.099236641221374,2.595419847328244,5.465648854961832,-0.2623688155922039,0.10344827586206896,-0.9820089955022488,
1.749450969745919E12,8.369565217391305,0.9347826086956521,8.17391304347826,4140.65934065934,2.0,2.4300366300366303,411.51643050949656,-24.931297709923662,3.1908396946564883,5.3893129770992365,-0.26686656671664166,0.11394302848575712,-0.9820089955022488,
1.7494509697654507E12,8.380434782608695,0.9565217391304348,8.206521739130434,4134.798534798534,2.0,2.4285714285714284,411.764705882353,-24.763358778625953,4.213740458015267,5.0534351145038165,-0.2638680659670165,0.10344827586206896,-0.9775112443778111,
1.7494509697849824E12,8.293478260869565,0.9565217391304348,8.25,4140.65934065934,2.0,2.4285714285714284,411.764705882353,-25.068702290076335,5.114503816793893,5.206106870229007,-0.2638680659670165,0.0944527736131934,-0.9775112443778111,
1.7494509698045144E12,8.358695652173912,0.9456521739130435,8.17391304347826,4140.65934065934,2.0,2.4271062271062265,412.0132810141866,-25.068702290076335,4.458015267175572,5.419847328244274,-0.2653673163418291,0.09895052473763118,-0.9820089955022488,
1.7494509698240461E12,8.369565217391305,0.9130434782608695,8.195652173913043,4117.216117216117,2.0,2.4271062271062265,412.0132810141866,-25.038167938931295,5.572519083969466,5.343511450381679,-0.2653673163418291,0.11244377811094453,-0.9805097451274363,
1.749450969843578E12,8.228260869565217,0.9347826086956521,8.271739130434783,4142.124542124542,2.0,2.4271062271062265,412.0132810141866,-25.083969465648853,6.946564885496183,6.33587786259542,-0.2638680659670165,0.10344827586206896,-0.9775112443778111,
1.7494509698631096E12,8.41304347826087,0.9021739130434783,8.25,4140.65934065934,2.0,2.4271062271062265,412.0132810141866,-25.877862595419845,5.114503816793893,6.702290076335878,-0.2623688155922039,0.12743628185907047,-0.9835082458770614,
1.7494509698826414E12,8.347826086956522,0.9456521739130435,8.17391304347826,4140.65934065934,2.0,2.4256410256410255,412.262156448203,-25.419847328244273,8.977099236641221,6.778625954198473,-0.26836581709145424,0.09895052473763118,-0.9760119940029984,
1.749450969902173E12,8.152173913043478,0.8913043478260869,8.41304347826087,4142.124542124542,2.0,2.4256410256410255,412.262156448203,-25.12977099236641,10.595419847328245,7.877862595419847,-0.2623688155922039,0.12143928035982009,-0.9775112443778111,
1.7494509699217048E12,8.380434782608695,0.8152173913043478,8.25,4134.798534798534,2.0,2.424175824175824,412.51133272892116,-26.12213740458015,6.900763358778626,7.450381679389313,-0.2623688155922039,0.09895052473763118,-0.9820089955022488,
1.7494509699412366E12,8.304347826086957,0.8804347826086957,8.282608695652174,4140.65934065934,2.0,2.4227106227106225,412.76081040217724,-25.48091603053435,9.603053435114504,8.473282442748092,-0.2698650674662669,0.10644677661169415,-0.9805097451274363,
1.7494509699607683E12,8.271739130434783,0.9130434782608695,8.326086956521738,4140.65934065934,2.0,2.4227106227106225,412.76081040217724,-25.404580152671755,11.541984732824426,9.66412213740458,-0.2578710644677661,0.10644677661169415,-0.9835082458770614,
1.7494509699803E12,8.26086956521739,0.858695652173913,8.271739130434783,4117.216117216117,2.0,2.421245421245421,413.0105900151286,-25.358778625954198,11.358778625954198,10.839694656488549,-0.2593703148425787,0.10794602698650674,-0.9805097451274363,
1.7494509699998318E12,8.228260869565217,0.8369565217391304,8.282608695652174,4142.124542124542,2.0,2.4197802197802196,413.260672116258,-25.66412213740458,13.587786259541984,10.045801526717558,-0.2623688155922039,0.0914542728635682,-0.9880059970014993,
1.7494509700193635E12,8.521739130434783,0.7934782608695652,8.33695652173913,4140.65934065934,2.0,2.418315018315018,413.5110572553772,-25.954198473282442,15.114503816793892,9.068702290076336,-0.25487256371814093,0.095952023988006,-0.9835082458770614,
1.7494509700388953E12,8.152173913043478,0.75,8.347826086956522,4140.65934065934,2.0,2.4197802197802196,413.260672116258,-25.908396946564885,22.061068702290076,10.396946564885496,-0.2593703148425787,0.12143928035982009,-0.9955022488755622,
1.749450970058427E12,8.130434782608695,0.75,8.358695652173912,4142.124542124542,2.0,2.418315018315018,413.5110572553772,-27.099236641221374,21.81679389312977,8.229007633587786,-0.25337331334332835,0.10644677661169415,-0.985007496251874,
1.7494509700779587E12,8.043478260869565,0.7391304347826086,8.434782608695652,4136.263736263736,2.0,2.4197802197802196,413.260672116258,-27.84732824427481,24.366412213740457,8.65648854961832,-0.25037481259370314,0.10194902548725637,-0.985007496251874,
1.7494509700974905E12,8.01086956521739,0.6521739130434783,8.619565217391305,4139.194139194139,2.0,2.4197802197802196,413.260672116258,-27.923664122137403,26.9618320610687,8.793893129770993,-0.2518740629685157,0.12143928035982009,-0.9835082458770614,
1.7494509701170222E12,7.956521739130435,0.5543478260869565,8.695652173913043,4140.65934065934,2.0,2.4168498168498167,413.76174598363144,-27.679389312977097,28.3206106870229,9.007633587786259,-0.25037481259370314,0.12743628185907047,-0.9910044977511244,
1.749450970136554E12,7.956521739130435,0.5434782608695652,8.728260869565217,4117.216117216117,2.0,2.4153846153846152,414.0127388535032,-26.244274809160306,28.900763358778626,8.015267175572518,-0.24137931034482757,0.10644677661169415,-0.9835082458770614,
1.7494509701560857E12,8.01086956521739,0.4891304347826087,8.847826086956522,4143.589743589743,2.0,2.4139194139194133,414.26403641881643,-24.366412213740457,31.98473282442748,6.641221374045801,-0.24587706146926536,0.10494752623688156,-0.9865067466266866,
1.7494509701756174E12,8.152173913043478,0.43478260869565216,9.119565217391305,4142.124542124542,2.0,2.4095238095238094,415.0197628458498,-19.755725190839694,39.38931297709924,5.66412213740458,-0.2383808095952024,0.0944527736131934,-0.9970014992503747,
1.7494509701951492E12,7.902173913043478,0.41304347826086957,9.184782608695652,4142.124542124542,2.0,2.405128205128205,415.77825159914715,-15.099236641221374,45.9236641221374,3.282442748091603,-0.2383808095952024,0.10944527736131934,-0.9880059970014993,
1.749450970214681E12,7.543478260869565,0.4891304347826087,9.08695652173913,4142.124542124542,2.0,2.4036630036630036,416.03169765315454,-11.877862595419847,47.282442748091604,0.9465648854961831,-0.2338830584707646,0.11094452773613193,-0.9955022488755622,
1.7494509702342126E12,7.8478260869565215,0.5869565217391304,9.054347826086957,4136.263736263736,2.0,2.402197802197802,416.28545288197625,-6.625954198473282,52.33587786259542,-5.022900763358779,-0.22488755622188905,0.1184407796101949,-0.9895052473763118,
1.7494509702537444E12,7.608695652173913,0.717391304347826,9.391304347826086,4139.194139194139,2.0,2.402197802197802,416.28545288197625,-6.885496183206107,62.44274809160305,-6.198473282442748,-0.22488755622188905,0.095952023988006,-0.9910044977511244,
1.7494509702732761E12,7.076086956521739,0.8695652173913043,9.608695652173912,4140.65934065934,2.0,2.4036630036630036,416.03169765315454,-6.595419847328244,66.82442748091603,-7.083969465648854,-0.2143928035982009,0.09745127436281859,-0.985007496251874,
1.7494509702928079E12,6.858695652173913,0.9130434782608695,9.804347826086957,4115.750915750916,2.0,2.4065934065934065,415.5251141552512,-8.091603053435113,64.90076335877862,-10.717557251908396,-0.2143928035982009,0.11544227886056971,-0.9910044977511244,
1.7494509703123396E12,6.641304347826087,0.9565217391304348,9.902173913043478,4142.124542124542,2.0,2.4065934065934065,415.5251141552512,-8.80916030534351,62.15267175572519,-13.267175572519083,-0.20539730134932532,0.10044977511244378,-0.9880059970014993,
1.7494509703318713E12,6.684782608695652,0.967391304347826,9.956521739130434,4140.65934065934,2.0,2.408058608058608,415.27228475813814,-9.862595419847327,58.76335877862595,-16.458015267175572,-0.2098950524737631,0.10944527736131934,-0.9805097451274363,
1.749450970351403E12,6.58695652173913,1.0434782608695652,10.076086956521738,4139.194139194139,2.0,2.4095238095238094,415.0197628458498,-11.49618320610687,57.63358778625954,-20.091603053435115,-0.19490254872563717,0.10644677661169415,-0.9835082458770614,
1.7494509703709348E12,6.326086956521739,1.2065217391304348,10.119565217391305,4140.65934065934,2.0,2.410989010989011,414.767547857794,-13.16030534351145,56.732824427480914,-21.679389312977097,-0.191904047976012,0.095952023988006,-0.9985007496251874,
1.7494509703904666E12,5.83695652173913,1.315217391304348,10.239130434782608,4136.263736263736,2.0,2.4124542124542123,414.5156392347404,-15.648854961832061,49.847328244274806,-20.442748091603054,-0.19040479760119938,0.0944527736131934,-0.9865067466266866,
1.7494509704099983E12,5.5978260869565215,1.5108695652173914,10.315217391304348,4140.65934065934,2.0,2.4168498168498167,413.76174598363144,-14.305343511450381,37.52671755725191,-19.63358778625954,-0.19040479760119938,0.08695652173913043,-0.9865067466266866,
1.74945097042953E12,5.4021739130434785,1.5543478260869565,10.282608695652174,4140.65934065934,2.0,2.418315018315018,413.5110572553772,-15.374045801526718,21.61832061068702,-16.045801526717558,-0.18440779610194902,0.10044977511244378,-0.9820089955022488,
1.749450970449062E12,5.695652173913043,1.5652173913043477,10.217391304347826,4118.681318681319,2.0,2.4197802197802196,413.260672116258,-13.419847328244273,7.801526717557252,-16.0,-0.1889055472263868,0.10644677661169415,-0.985007496251874,
1.7494509704685938E12,6.3478260869565215,1.6304347826086956,10.195652173913043,4142.124542124542,2.0,2.4197802197802196,413.260672116258,-11.16030534351145,0.32061068702290074,-18.99236641221374,-0.1934032983508246,0.10044977511244378,-0.9835082458770614,
1.7494509704881255E12,6.565217391304348,1.6304347826086956,10.119565217391305,4142.124542124542,2.0,2.4197802197802196,413.260672116258,-14.564885496183205,4.519083969465648,-19.98473282442748,-0.1874062968515742,0.09745127436281859,-0.9985007496251874,
1.7494509705076572E12,6.521739130434782,1.7826086956521738,10.021739130434783,4140.65934065934,2.0,2.4197802197802196,413.260672116258,-14.625954198473282,12.82442748091603,-22.213740458015266,-0.1934032983508246,0.0914542728635682,-0.9910044977511244,
1.749450970527189E12,6.054347826086956,1.7608695652173914,9.869565217391305,4140.65934065934,2.0,2.421245421245421,413.0105900151286,-19.236641221374047,19.84732824427481,-21.572519083969464,-0.19040479760119938,0.08095952023988005,-0.985007496251874,
1.7494509705467207E12,5.619565217391304,1.7608695652173914,9.641304347826086,4139.194139194139,2.0,2.4197802197802196,413.260672116258,-19.98473282442748,18.900763358778626,-21.755725190839694,-0.19640179910044978,0.09295352323838081,-0.9910044977511244,
1.7494509705662524E12,5.489130434782608,1.891304347826087,9.521739130434783,4140.65934065934,2.0,2.4197802197802196,413.260672116258,-18.0,12.6412213740458,-22.442748091603054,-0.191904047976012,0.10194902548725637,-0.985007496251874,
1.7494509705857842E12,5.58695652173913,1.891304347826087,9.478260869565217,4142.124542124542,2.0,2.4197802197802196,413.260672116258,-19.358778625954198,5.847328244274809,-22.27480916030534,-0.1889055472263868,0.09745127436281859,-0.9835082458770614,
1.749450970605316E12,6.021739130434782,1.7934782608695652,9.521739130434783,4115.750915750916,2.0,2.4197802197802196,413.260672116258,-18.519083969465647,5.587786259541985,-23.404580152671755,-0.18590704647676162,0.10044977511244378,-0.9835082458770614,
1.7494509706248477E12,5.695652173913043,1.8152173913043477,9.695652173913043,4104.029304029304,2.0,2.4168498168498167,413.76174598363144,-18.183206106870227,5.908396946564885,-24.106870229007633,-0.18440779610194902,0.08545727136431784,-0.9730134932533733,
1.7494509706443794E12,5.532608695652174,1.9239130434782608,9.66304347826087,4140.65934065934,2.0,2.4168498168498167,413.76174598363144,-20.335877862595417,1.5572519083969465,-25.893129770992367,-0.19040479760119938,0.08545727136431784,-0.9775112443778111,
1.7494509706639111E12,5.630434782608695,2.130434782608696,9.66304347826087,4139.194139194139,2.0,2.418315018315018,413.5110572553772,-17.923664122137403,-5.7251908396946565,-24.763358778625953,-0.18590704647676162,0.09295352323838081,-0.9805097451274363,
1.7494509706834429E12,5.891304347826087,2.141304347826087,9.695652173913043,4140.65934065934,2.0,2.4197802197802196,413.260672116258,-15.022900763358779,-10.030534351145038,-22.549618320610687,-0.19490254872563717,0.09295352323838081,-0.9880059970014993,
1.7494509707029746E12,6.065217391304348,2.1739130434782608,9.641304347826086,4137.728937728937,2.0,2.421245421245421,413.0105900151286,-15.709923664122137,-9.083969465648854,-21.358778625954198,-0.1874062968515742,0.10794602698650674,-0.9775112443778111,
1.7494509707225063E12,5.826086956521739,2.141304347826087,9.66304347826087,4139.194139194139,2.0,2.4227106227106225,412.76081040217724,-17.740458015267176,-0.22900763358778625,-19.251908396946565,-0.20089955022488756,0.1184407796101949,-0.9910044977511244,
1.749450970742038E12,5.532608695652174,2.010869565217391,9.619565217391305,4140.65934065934,2.0,2.4227106227106225,412.76081040217724,-17.51145038167939,4.7328244274809155,-18.748091603053435,-0.191904047976012,0.09295352323838081,-0.9970014992503747,
1.7494509707615698E12,5.304347826086956,2.130434782608696,9.608695652173912,4117.216117216117,2.0,2.424175824175824,412.51133272892116,-16.137404580152673,-0.5190839694656488,-19.740458015267176,-0.19940029985007496,0.09295352323838081,-0.992503748125937,
1.7494509707811016E12,5.5978260869565215,2.293478260869565,9.641304347826086,4142.124542124542,2.0,2.424175824175824,412.51133272892116,-15.190839694656487,-8.931297709923664,-19.236641221374047,-0.19790104947526235,0.10794602698650674,-0.9865067466266866,
1.7494509708006333E12,5.619565217391304,2.532608695652174,9.945652173913043,4140.65934065934,2.0,2.424175824175824,412.51133272892116,-14.702290076335878,-13.98473282442748,-16.137404580152673,-0.1934032983508246,0.095952023988006,-0.9895052473763118,
1.749450970820165E12,5.663043478260869,2.652173913043478,10.043478260869565,4140.65934065934,2.0,2.424175824175824,412.51133272892116,-14.381679389312977,-14.763358778625953,-13.679389312977099,-0.20239880059970014,0.10194902548725637,-0.9880059970014993,
1.7494509708396968E12,6.054347826086956,2.5760869565217392,9.934782608695652,4142.124542124542,2.0,2.4256410256410255,412.262156448203,-14.091603053435113,-14.80916030534351,-13.938931297709923,-0.20389805097451275,0.09295352323838081,-0.9880059970014993,
1.7494509708592285E12,6.239130434782608,2.5760869565217392,9.793478260869565,4140.65934065934,2.0,2.4256410256410255,412.262156448203,-12.854961832061068,-13.96946564885496,-13.66412213740458,-0.21139430284857572,0.11094452773613193,-0.9940029985007496,
1.7494509708787603E12,6.163043478260869,2.684782608695652,9.793478260869565,4139.194139194139,2.0,2.4271062271062265,412.0132810141866,-13.206106870229007,-5.374045801526718,-13.267175572519083,-0.20389805097451275,0.08845577211394302,-0.985007496251874,
1.749450970898292E12,6.141304347826087,2.6956521739130435,9.83695652173913,4139.194139194139,2.0,2.4271062271062265,412.0132810141866,-13.129770992366412,3.83206106870229,-13.251908396946565,-0.20089955022488756,0.08245877061469264,-0.9880059970014993,
1.7494509709178237E12,6.141304347826087,2.641304347826087,10.054347826086957,4115.750915750916,2.0,2.4271062271062265,412.0132810141866,-15.557251908396946,12.030534351145038,-14.167938931297709,-0.2083958020989505,0.08545727136431784,-0.992503748125937,
1.7494509709373555E12,6.543478260869565,2.869565217391304,10.380434782608695,4142.124542124542,2.0,2.4271062271062265,412.0132810141866,-13.007633587786259,13.053435114503817,-15.709923664122137,-0.2083958020989505,0.09745127436281859,-0.9790104947526237,
1.7494509709568872E12,6.467391304347826,3.0869565217391304,10.91304347826087,4140.65934065934,2.0,2.4271062271062265,412.0132810141866,-12.534351145038167,11.81679389312977,-17.66412213740458,-0.2098950524737631,0.0944527736131934,-0.9880059970014993,
1.749450970976419E12,5.967391304347826,3.2065217391304346,11.206521739130434,4139.194139194139,2.0,2.4300366300366303,411.51643050949656,-10.580152671755725,4.045801526717557,-20.702290076335878,-0.20389805097451275,0.08545727136431784,-0.9880059970014993,
1.7494509709959507E12,5.608695652173913,3.2282608695652173,10.826086956521738,4140.65934065934,2.0,2.4315018315018313,411.26845435372104,-6.702290076335878,-13.709923664122137,-25.709923664122137,-0.21739130434782608,0.06896551724137931,-0.9820089955022488,
1.7494509710154824E12,5.967391304347826,3.4130434782608696,10.445652173913043,4140.65934065934,2.0,2.4315018315018313,411.26845435372104,-2.015267175572519,-28.97709923664122,-31.541984732824424,-0.20539730134932532,0.07796101949025487,-0.9910044977511244,
1.7494509710350142E12,6.0,3.7391304347826084,10.5,4139.194139194139,2.0,2.4315018315018313,411.26845435372104,-3.282442748091603,-42.854961832061065,-33.17557251908397,-0.21739130434782608,0.08095952023988005,-0.9835082458770614,
1.749450971054546E12,5.9021739130434785,3.934782608695652,10.58695652173913,4140.65934065934,2.0,2.4329670329670328,411.02077687443546,-4.687022900763359,-58.54961832061068,-35.64885496183206,-0.22038980509745126,0.07196401799100449,-0.9970014992503747,
1.7494509710740776E12,6.195652173913043,4.141304347826087,10.358695652173912,4114.285714285714,2.0,2.4315018315018313,411.26845435372104,-2.1526717557251906,-80.54961832061069,-38.88549618320611,-0.22788605697151423,0.08545727136431784,-0.992503748125937,
1.7494509710936094E12,6.58695652173913,4.33695652173913,10.08695652173913,4140.65934065934,2.0,2.4315018315018313,411.26845435372104,0.15267175572519084,-96.50381679389312,-41.12977099236641,-0.2338830584707646,0.08095952023988005,-0.9940029985007496,
1.7494509711131414E12,6.793478260869565,4.467391304347826,9.66304347826087,4139.194139194139,2.0,2.4329670329670328,411.02077687443546,2.091603053435114,-97.77099236641222,-46.732824427480914,-0.24587706146926536,0.06746626686656672,-0.9745127436281859,
1.749450971132673E12,7.032608695652174,4.478260869565217,9.108695652173912,4139.194139194139,2.0,2.4329670329670328,411.02077687443546,0.47328244274809156,-85.8473282442748,-52.229007633587784,-0.2518740629685157,0.07196401799100449,-0.9865067466266866,
1.7494509711522048E12,7.456521739130435,4.478260869565217,9.01086956521739,4140.65934065934,2.0,2.4315018315018313,411.26845435372104,1.3435114503816794,-63.099236641221374,-53.37404580152671,-0.2608695652173913,0.06746626686656672,-0.985007496251874,
1.7494509711717366E12,7.239130434782608,4.684782608695652,9.065217391304348,4139.194139194139,2.0,2.4315018315018313,411.26845435372104,3.480916030534351,-35.541984732824424,-53.61832061068702,-0.2563718140929535,0.06596701649175413,-0.9760119940029984,
1.7494509711912683E12,6.641304347826087,4.815217391304348,9.152173913043478,4140.65934065934,2.0,2.4315018315018313,411.26845435372104,4.351145038167939,-7.419847328244274,-49.37404580152671,-0.2638680659670165,0.05847076461769115,-0.9775112443778111,
1.7494509712108E12,6.413043478260869,4.891304347826087,9.23913043478261,4140.65934065934,2.0,2.4315018315018313,411.26845435372104,6.6106870229007635,5.923664122137405,-44.82442748091603,-0.2698650674662669,0.05847076461769115,-0.9760119940029984,
1.7494509712303318E12,5.9021739130434785,5.032608695652174,8.83695652173913,4114.285714285714,2.0,2.4315018315018313,411.26845435372104,7.145038167938931,11.31297709923664,-41.69465648854962,-0.2623688155922039,0.05247376311844078,-0.9775112443778111,
1.7494509712498635E12,5.967391304347826,5.1521739130434785,8.48913043478261,4139.194139194139,2.0,2.4315018315018313,411.26845435372104,8.48854961832061,11.465648854961831,-36.33587786259542,-0.2653673163418291,0.03298350824587706,-0.9730134932533733,
1.7494509712693953E12,6.206521739130435,5.369565217391304,8.608695652173912,4142.124542124542,2.0,2.4315018315018313,411.26845435372104,8.427480916030534,12.625954198473282,-30.15267175572519,-0.2623688155922039,0.037481259370314844,-0.9625187406296851,
1.749450971288927E12,5.869565217391304,5.804347826086956,8.858695652173912,4140.65934065934,2.0,2.4315018315018313,411.26845435372104,6.229007633587786,28.50381679389313,-26.16793893129771,-0.2608695652173913,0.04497751124437781,-0.9805097451274363,
1.7494509713084587E12,5.6521739130434785,5.608695652173913,9.141304347826086,4142.124542124542,2.0,2.4315018315018313,411.26845435372104,-2.2748091603053435,40.5648854961832,-11.541984732824426,-0.2578710644677661,0.04047976011994003,-0.9685157421289355,
1.7494509713279905E12,5.989130434782608,5.358695652173913,8.978260869565217,4142.124542124542,2.0,2.4329670329670328,411.02077687443546,1.3435114503816794,64.54961832061069,-8.610687022900763,-0.25337331334332835,0.03298350824587706,-0.9805097451274363,
1.7494509713475222E12,6.108695652173913,5.510869565217392,9.0,4140.65934065934,2.0,2.4329670329670328,411.02077687443546,1.6335877862595418,93.14503816793892,-0.8854961832061068,-0.24137931034482757,0.031484257871064465,-0.9730134932533733,
1.749450971367054E12,6.1521739130434785,5.619565217391304,9.25,4140.65934065934,2.0,2.4329670329670328,411.02077687443546,-5.374045801526718,124.04580152671755,6.442748091603053,-0.23238380809595202,0.0239880059970015,-0.9760119940029984,
1.7494509713865857E12,4.771739130434782,5.58695652173913,8.945652173913043,4115.750915750916,2.0,2.4329670329670328,411.02077687443546,-12.870229007633588,139.66412213740458,12.213740458015266,-0.22488755622188905,0.04047976011994003,-0.9640179910044977,
1.7494509714061174E12,3.4782608695652173,5.663043478260869,8.978260869565217,4142.124542124542,2.0,2.434432234432234,410.7733975323503,-21.206106870229007,130.2595419847328,17.557251908396946,-0.2098950524737631,0.022488755622188904,-0.9670164917541229,
1.7494509714256492E12,3.5978260869565215,5.510869565217392,9.16304347826087,4142.124542124542,2.0,2.435897435897436,410.5263157894737,-24.061068702290076,93.9236641221374,24.732824427480914,-0.19940029985007496,0.035982008995502246,-0.9730134932533733,
1.749450971445181E12,4.989130434782608,5.217391304347826,9.619565217391305,4137.728937728937,2.0,2.435897435897436,410.5263157894737,-23.603053435114504,63.80152671755725,32.12213740458015,-0.1889055472263868,0.037481259370314844,-0.9670164917541229,
1.7494509714647126E12,6.239130434782608,4.934782608695652,9.902173913043478,4142.124542124542,2.0,2.437362637362637,410.2795311091073,-23.81679389312977,60.15267175572519,32.16793893129771,-0.1874062968515742,0.043478260869565216,-0.9700149925037481,
1.7494509714842444E12,5.891304347826087,4.956521739130435,9.869565217391305,4139.194139194139,2.0,2.438827838827839,410.0330429558426,-23.43511450381679,76.7328244274809,29.419847328244273,-0.17841079460269865,0.025487256371814093,-0.9670164917541229,
1.7494509715037761E12,4.869565217391305,5.032608695652174,10.076086956521738,4139.194139194139,2.0,2.4402930402930405,409.78685079555686,-26.12213740458015,96.01526717557252,31.374045801526716,-0.17391304347826086,0.0239880059970015,-0.9550224887556221,
1.7494509715233079E12,3.4239130434782608,4.923913043478261,9.804347826086957,4140.65934065934,2.0,2.4402930402930405,409.78685079555686,-28.442748091603054,80.50381679389312,33.31297709923664,-0.1679160419790105,0.025487256371814093,-0.9685157421289355,
1.7494509715428396E12,3.3043478260869565,5.010869565217392,9.641304347826086,4115.750915750916,2.0,2.441758241758242,409.5409540954095,-26.50381679389313,48.18320610687023,32.54961832061068,-0.16041979010494753,0.034482758620689655,-0.9610194902548725,
1.7494509715623713E12,4.956521739130435,4.880434782608695,10.228260869565217,4143.589743589743,2.0,2.443223443223443,409.2953523238381,-22.748091603053435,13.862595419847327,36.25954198473282,-0.1649175412293853,0.038980509745127435,-0.9565217391304347,
1.749450971581903E12,5.576086956521739,4.684782608695652,10.521739130434783,4142.124542124542,2.0,2.443223443223443,409.2953523238381,-20.80916030534351,-3.3893129770992365,31.526717557251906,-0.16041979010494753,0.04047976011994003,-0.9655172413793103,
1.7494509716014348E12,5.391304347826087,4.684782608695652,10.51086956521739,4140.65934065934,2.0,2.443223443223443,409.2953523238381,-18.702290076335878,5.633587786259541,26.244274809160306,-0.1634182908545727,0.031484257871064465,-0.9565217391304347,
1.7494509716209666E12,4.641304347826087,4.782608695652174,10.021739130434783,4140.65934065934,2.0,2.441758241758242,409.5409540954095,-16.885496183206108,6.595419847328244,21.801526717557252,-0.15892053973013492,0.026986506746626684,-0.9535232383808095,
1.7494509716404983E12,3.858695652173913,5.054347826086956,9.445652173913043,4140.65934065934,2.0,2.437362637362637,410.2795311091073,-16.82442748091603,1.7099236641221374,18.16793893129771,-0.14992503748125938,0.019490254872563718,-0.9655172413793103,
1.74945097166003E12,3.717391304347826,5.065217391304348,9.315217391304348,4139.194139194139,2.0,2.435897435897436,410.5263157894737,-23.114503816793892,-8.870229007633588,18.549618320610687,-0.15892053973013492,0.029985007496251874,-0.9640179910044977,
1.7494509716795618E12,5.282608695652174,4.673913043478261,9.597826086956522,4140.65934065934,2.0,2.4315018315018313,411.26845435372104,-24.763358778625953,-20.366412213740457,21.0381679389313,-0.1679160419790105,0.043478260869565216,-0.9655172413793103,
1.7494509716990935E12,6.1521739130434785,4.619565217391305,9.880434782608695,4117.216117216117,2.0,2.4315018315018313,411.26845435372104,-25.450381679389313,-23.63358778625954,14.381679389312977,-0.1679160419790105,0.031484257871064465,-0.9610194902548725,
1.7494509717186252E12,5.391304347826087,4.739130434782608,10.08695652173913,4142.124542124542,2.0,2.4315018315018313,411.26845435372104,-29.84732824427481,-3.2061068702290076,9.129770992366412,-0.1619190404797601,0.025487256371814093,-0.9580209895052474,
1.749450971738157E12,4.608695652173913,4.760869565217392,9.891304347826086,4140.65934065934,2.0,2.4315018315018313,411.26845435372104,-30.183206106870227,5.66412213740458,7.969465648854961,-0.16041979010494753,0.025487256371814093,-0.9550224887556221,
1.749450971757689E12,4.108695652173913,4.83695652173913,9.608695652173912,4136.263736263736,2.0,2.4300366300366303,411.51643050949656,-29.099236641221374,-4.305343511450381,6.061068702290076,-0.1664167916041979,0.025487256371814093,-0.9550224887556221,
1.7494509717772207E12,4.1521739130434785,4.673913043478261,9.652173913043478,4139.194139194139,2.0,2.4300366300366303,411.51643050949656,-32.47328244274809,-22.259541984732824,6.916030534351145,-0.1679160419790105,0.026986506746626684,-0.9685157421289355,
1.7494509717967524E12,5.83695652173913,4.0978260869565215,12.25,4140.65934065934,2.0,2.4300366300366303,411.51643050949656,-33.862595419847324,-38.44274809160305,3.679389312977099,-0.1649175412293853,0.041979010494752625,-0.9550224887556221,
1.7494509718162842E12,6.489130434782608,4.239130434782608,11.217391304347826,4139.194139194139,2.0,2.4300366300366303,411.51643050949656,-22.183206106870227,-36.091603053435115,-5.557251908396946,-0.17391304347826086,0.035982008995502246,-0.9640179910044977,
1.749450971835816E12,4.304347826086956,4.945652173913043,9.695652173913043,4140.65934065934,2.0,2.4315018315018313,411.26845435372104,-22.946564885496183,-10.80916030534351,-7.0534351145038165,-0.17091454272863568,0.037481259370314844,-0.95952023988006,
1.7494509718553477E12,4.130434782608695,4.565217391304348,9.956521739130434,4115.750915750916,2.0,2.4329670329670328,411.02077687443546,-25.46564885496183,5.511450381679389,-1.3893129770992365,-0.17391304347826086,0.029985007496251874,-0.95952023988006,
1.7494509718748794E12,4.978260869565217,4.5978260869565215,10.16304347826087,4142.124542124542,2.0,2.4402930402930405,409.78685079555686,-20.68702290076336,-10.99236641221374,-2.6259541984732824,-0.16941529235382308,0.020989505247376312,-0.9535232383808095,
1.7494509718944111E12,5.163043478260869,4.793478260869565,9.826086956521738,4140.65934065934,2.0,2.4461538461538463,408.80503144654085,-22.229007633587784,-14.412213740458014,-1.9236641221374045,-0.1619190404797601,0.035982008995502246,-0.9655172413793103,
1.7494509719139429E12,5.33695652173913,4.826086956521739,10.08695652173913,4137.728937728937,2.0,2.447619047619048,408.56031128404663,-24.442748091603054,-12.900763358778626,0.9465648854961831,-0.17841079460269865,0.031484257871064465,-0.9565217391304347,
1.7494509719334746E12,5.717391304347826,4.989130434782608,9.967391304347826,4140.65934065934,2.0,2.447619047619048,408.56031128404663,-25.679389312977097,-1.2519083969465647,2.3206106870229006,-0.1649175412293853,0.034482758620689655,-0.95952023988006,
1.7494509719530063E12,5.065217391304348,5.315217391304348,9.891304347826086,4142.124542124542,2.0,2.447619047619048,408.56031128404663,-24.106870229007633,8.427480916030534,-0.22900763358778625,-0.17541229385307347,0.037481259370314844,-0.9610194902548725,
1.749450971972538E12,4.673913043478261,5.195652173913043,9.858695652173912,4140.65934065934,2.0,2.4490842490842493,408.3158839365839,-25.801526717557252,16.65648854961832,-1.9541984732824427,-0.17841079460269865,0.034482758620689655,-0.9685157421289355,
1.7494509719920698E12,4.673913043478261,5.163043478260869,9.967391304347826,4140.65934065934,2.0,2.4505494505494503,408.07174887892376,-23.053435114503817,15.435114503816793,-3.129770992366412,-0.17391304347826086,0.026986506746626684,-0.9550224887556221,
1.7494509720116016E12,4.728260869565217,5.195652173913043,9.934782608695652,4115.750915750916,2.0,2.4505494505494503,408.07174887892376,-22.48854961832061,10.748091603053435,-6.6106870229007635,-0.1664167916041979,0.029985007496251874,-0.9655172413793103,
1.7494509720311333E12,5.032608695652174,5.423913043478261,9.945652173913043,4142.124542124542,2.0,2.452014652014652,407.8279055870929,-23.206106870229007,10.229007633587786,-7.0534351145038165,-0.16041979010494753,0.026986506746626684,-0.9565217391304347,
1.749450972050665E12,5.08695652173913,5.489130434782608,9.880434782608695,4140.65934065934,2.0,2.4534798534798536,407.5843535383696,-26.82442748091603,9.801526717557252,-8.091603053435113,-0.17841079460269865,0.03298350824587706,-0.9685157421289355,
1.7494509720701968E12,4.630434782608695,5.489130434782608,9.934782608695652,4136.263736263736,2.0,2.454945054945055,407.34109221128017,-30.488549618320608,12.076335877862595,-9.17557251908397,-0.17091454272863568,0.038980509745127435,-0.9535232383808095,
1.7494509720897285E12,4.489130434782608,5.434782608695652,9.989130434782608,4104.029304029304,2.0,2.460805860805861,406.3709437332539,-29.206106870229007,13.66412213740458,-6.473282442748092,-0.17091454272863568,0.03298350824587706,-0.9565217391304347,
1.7494509721092603E12,4.369565217391305,5.260869565217392,10.043478260869565,4142.124542124542,2.0,2.460805860805861,406.3709437332539,-26.610687022900763,15.801526717557252,-8.198473282442748,-0.1634182908545727,0.0239880059970015,-0.9610194902548725,
1.749450972128792E12,3.967391304347826,5.141304347826087,10.184782608695652,4140.65934065934,2.0,2.460805860805861,406.3709437332539,-27.419847328244273,14.091603053435113,-7.9541984732824424,-0.17091454272863568,0.0239880059970015,-0.9580209895052474,
1.7494509721483237E12,4.141304347826087,5.1521739130434785,10.206521739130434,4142.124542124542,2.0,2.460805860805861,406.3709437332539,-23.96946564885496,7.145038167938931,-2.2900763358778624,-0.1619190404797601,0.029985007496251874,-0.95952023988006,
1.7494509721678555E12,4.4021739130434785,5.239130434782608,9.989130434782608,4117.216117216117,2.0,2.45934065934066,406.61304736371756,-23.557251908396946,-1.0381679389312977,-1.6793893129770991,-0.1634182908545727,0.046476761619190406,-0.9535232383808095,
1.7494509721873872E12,4.543478260869565,5.358695652173913,9.92391304347826,4142.124542124542,2.0,2.45934065934066,406.61304736371756,-22.65648854961832,-5.877862595419847,-0.7938931297709924,-0.1664167916041979,0.034482758620689655,-0.95952023988006,
1.749450972206919E12,4.663043478260869,5.195652173913043,9.880434782608695,4142.124542124542,2.0,2.45934065934066,406.61304736371756,-24.534351145038165,-14.67175572519084,-0.16793893129770993,-0.15892053973013492,0.05397301349325337,-0.95952023988006,
1.7494509722264507E12,5.141304347826087,5.195652173913043,9.967391304347826,4136.263736263736,2.0,2.457875457875458,406.8554396423249,-24.259541984732824,-19.64885496183206,-0.48854961832061067,-0.1649175412293853,0.0239880059970015,-0.95952023988006,
1.7494509722459824E12,5.173913043478261,5.141304347826087,10.184782608695652,4143.589743589743,2.0,2.457875457875458,406.8554396423249,-23.51145038167939,-15.007633587786259,-2.8091603053435112,-0.17091454272863568,0.029985007496251874,-0.9610194902548725,
1.7494509722655142E12,4.858695652173913,5.1521739130434785,10.076086956521738,4142.124542124542,2.0,2.457875457875458,406.8554396423249,-25.954198473282442,-4.809160305343512,-3.541984732824427,-0.17091454272863568,0.022488755622188904,-0.95952023988006,
1.749450972285046E12,4.467391304347826,5.195652173913043,10.119565217391305,4140.65934065934,2.0,2.457875457875458,406.8554396423249,-23.740458015267176,5.114503816793893,-1.2213740458015268,-0.1649175412293853,0.04047976011994003,-0.9685157421289355,
1.7494509723045776E12,4.3478260869565215,5.228260869565217,10.119565217391305,4140.65934065934,2.0,2.457875457875458,406.8554396423249,-23.66412213740458,4.519083969465648,-0.22900763358778625,-0.16941529235382308,0.03298350824587706,-0.9655172413793103,
1.7494509723241094E12,4.25,5.3478260869565215,10.097826086956522,4117.216117216117,2.0,2.457875457875458,406.8554396423249,-22.793893129770993,-1.66412213740458,-0.2748091603053435,-0.16941529235382308,0.043478260869565216,-0.9505247376311844,
1.749450972343641E12,4.456521739130435,5.380434782608695,9.989130434782608,4142.124542124542,2.0,2.456410256410256,407.098121085595,-22.091603053435115,-6.534351145038167,1.3282442748091603,-0.17091454272863568,0.031484257871064465,-0.9565217391304347,
1.7494509723631729E12,4.826086956521739,5.239130434782608,9.869565217391305,4140.65934065934,2.0,2.456410256410256,407.098121085595,-23.374045801526716,-10.381679389312977,2.9618320610687023,-0.1664167916041979,0.02848575712143928,-0.9640179910044977,
1.7494509723827046E12,5.010869565217392,5.173913043478261,9.902173913043478,4134.798534798534,2.0,2.454945054945055,407.34109221128017,-23.679389312977097,-8.625954198473282,1.9389312977099236,-0.1619190404797601,0.035982008995502246,-0.9640179910044977,
1.7494509724022363E12,4.945652173913043,5.217391304347826,9.956521739130434,4140.65934065934,2.0,2.454945054945055,407.34109221128017,-23.16030534351145,-4.870229007633587,1.4809160305343512,-0.17391304347826086,0.038980509745127435,-0.9640179910044977,
1.7494509724217683E12,4.815217391304348,5.25,9.978260869565217,4140.65934065934,2.0,2.454945054945055,407.34109221128017,-23.877862595419845,-0.9923664122137404,1.8473282442748091,-0.17091454272863568,0.041979010494752625,-0.9625187406296851,
1.7494509724413E12,4.739130434782608,5.282608695652174,9.989130434782608,4140.65934065934,2.0,2.454945054945055,407.34109221128017,-23.603053435114504,-0.4580152671755725,1.9694656488549618,-0.16941529235382308,0.031484257871064465,-0.9655172413793103,
1.7494509724608318E12,4.706521739130435,5.315217391304348,9.989130434782608,4139.194139194139,2.0,2.454945054945055,407.34109221128017,-24.30534351145038,-0.8549618320610687,2.6412213740458013,-0.17841079460269865,0.02848575712143928,-0.9670164917541229,
1.7494509724803635E12,4.684782608695652,5.260869565217392,9.945652173913043,4115.750915750916,2.0,2.454945054945055,407.34109221128017,-24.076335877862594,-1.129770992366412,3.2519083969465647,-0.17241379310344826,0.031484257871064465,-0.9610194902548725,
1.7494509724998953E12,4.8478260869565215,5.239130434782608,9.92391304347826,4142.124542124542,2.0,2.454945054945055,407.34109221128017,-24.213740458015266,-2.6717557251908395,3.7862595419847325,-0.17391304347826086,0.035982008995502246,-0.95952023988006,
1.749450972519427E12,4.869565217391305,5.228260869565217,9.92391304347826,4140.65934065934,2.0,2.454945054945055,407.34109221128017,-24.213740458015266,-1.7099236641221374,3.709923664122137,-0.1634182908545727,0.035982008995502246,-0.9535232383808095,
1.7494509725389587E12,4.793478260869565,5.206521739130435,9.92391304347826,4134.798534798534,2.0,2.454945054945055,407.34109221128017,-24.412213740458014,0.8244274809160305,3.5572519083969465,-0.17091454272863568,0.041979010494752625,-0.9685157421289355,
1.7494509725584905E12,4.739130434782608,5.260869565217392,9.945652173913043,4140.65934065934,2.0,2.454945054945055,407.34109221128017,-24.045801526717558,3.0076335877862594,3.709923664122137,-0.17541229385307347,0.04047976011994003,-0.9655172413793103,
1.7494509725780222E12,4.684782608695652,5.293478260869565,9.945652173913043,4140.65934065934,2.0,2.454945054945055,407.34109221128017,-24.47328244274809,3.4351145038167936,3.709923664122137,-0.1619190404797601,0.038980509745127435,-0.9625187406296851,
1.749450972597554E12,4.6521739130434785,5.293478260869565,10.0,4140.65934065934,2.0,2.454945054945055,407.34109221128017,-24.580152671755723,3.1755725190839694,3.5725190839694654,-0.17391304347826086,0.025487256371814093,-0.9640179910044977,
1.7494509726170857E12,4.641304347826087,5.260869565217392,9.945652173913043,4140.65934065934,2.0,2.454945054945055,407.34109221128017,-24.763358778625953,1.297709923664122,4.106870229007633,-0.17091454272863568,0.03298350824587706,-0.9640179910044977,
1.7494509726366174E12,4.739130434782608,5.25,9.934782608695652,4114.285714285714,2.0,2.454945054945055,407.34109221128017,-24.549618320610687,-1.4351145038167938,4.122137404580153,-0.1679160419790105,0.026986506746626684,-0.9655172413793103,
1.7494509726561492E12,4.83695652173913,5.239130434782608,9.934782608695652,4140.65934065934,2.0,2.454945054945055,407.34109221128017,-24.48854961832061,-1.6030534351145038,4.015267175572519,-0.17091454272863568,0.041979010494752625,-0.9550224887556221,
1.749450972675681E12,4.826086956521739,5.217391304347826,9.945652173913043,4140.65934065934,2.0,2.454945054945055,407.34109221128017,-24.12213740458015,-0.22900763358778625,4.061068702290076,-0.17091454272863568,0.03298350824587706,-0.9610194902548725,
1.7494509726952126E12,4.83695652173913,5.228260869565217,9.956521739130434,4133.333333333333,2.0,2.454945054945055,407.34109221128017,-24.15267175572519,0.8549618320610687,3.969465648854962,-0.17091454272863568,0.035982008995502246,-0.9625187406296851,
1.7494509727147444E12,4.782608695652174,5.271739130434782,9.92391304347826,4142.124542124542,2.0,2.4534798534798536,407.5843535383696,-24.16793893129771,1.9541984732824427,3.877862595419847,-0.16941529235382308,0.043478260869565216,-0.9610194902548725,
1.7494509727342761E12,4.717391304347826,5.282608695652174,9.989130434782608,4140.65934065934,2.0,2.454945054945055,407.34109221128017,-24.610687022900763,2.9770992366412212,3.877862595419847,-0.17391304347826086,0.02848575712143928,-0.9640179910044977,
1.7494509727538079E12,4.728260869565217,5.239130434782608,9.91304347826087,4140.65934065934,2.0,2.4534798534798536,407.5843535383696,-24.48854961832061,1.9389312977099236,3.877862595419847,-0.17241379310344826,0.05697151424287856,-0.9640179910044977,
1.7494509727733396E12,4.706521739130435,5.228260869565217,9.92391304347826,4137.728937728937,2.0,2.4534798534798536,407.5843535383696,-24.671755725190838,1.0534351145038168,4.122137404580153,-0.17241379310344826,0.020989505247376312,-0.95952023988006,
1.7494509727928713E12,4.717391304347826,5.260869565217392,9.92391304347826,4117.216117216117,2.0,2.4534798534798536,407.5843535383696,-24.3206106870229,0.6106870229007634,3.801526717557252,-0.17391304347826086,0.038980509745127435,-0.95952023988006,
1.749450972812403E12,4.771739130434782,5.260869565217392,9.956521739130434,4142.124542124542,2.0,2.4534798534798536,407.5843535383696,-24.015267175572518,0.24427480916030533,3.5572519083969465,-0.17241379310344826,0.03298350824587706,-0.9640179910044977,
1.7494509728319348E12,4.75,5.271739130434782,9.956521739130434,4140.65934065934,2.0,2.4534798534798536,407.5843535383696,-24.427480916030532,0.061068702290076333,3.4045801526717554,-0.17241379310344826,0.050974512743628186,-0.9625187406296851,
1.7494509728514666E12,4.75,5.260869565217392,9.934782608695652,4133.333333333333,2.0,2.4534798534798536,407.5843535383696,-24.458015267175572,0.8549618320610687,2.8702290076335877,-0.1664167916041979,0.02848575712143928,-0.9685157421289355,
1.7494509728709983E12,4.75,5.260869565217392,9.945652173913043,4142.124542124542,2.0,2.4534798534798536,407.5843535383696,-24.519083969465647,0.564885496183206,2.931297709923664,-0.17241379310344826,0.050974512743628186,-0.9625187406296851,
1.74945097289053E12,4.793478260869565,5.271739130434782,9.945652173913043,4142.124542124542,2.0,2.452014652014652,407.8279055870929,-24.213740458015266,-0.32061068702290074,3.0534351145038165,-0.17241379310344826,0.025487256371814093,-0.95952023988006,
1.7494509729100618E12,4.782608695652174,5.239130434782608,9.945652173913043,4140.65934065934,2.0,2.4534798534798536,407.5843535383696,-24.580152671755723,-0.33587786259541985,3.6030534351145036,-0.17541229385307347,0.03298350824587706,-0.952023988005997,
1.7494509729295935E12,4.804347826086956,5.239130434782608,9.945652173913043,4140.65934065934,2.0,2.452014652014652,407.8279055870929,-24.3206106870229,-0.5343511450381679,3.0076335877862594,-0.17241379310344826,0.04497751124437781,-0.9625187406296851,
1.7494509729491252E12,4.815217391304348,5.260869565217392,9.967391304347826,4115.750915750916,2.0,2.452014652014652,407.8279055870929,-24.198473282442748,0.5343511450381679,3.465648854961832,-0.17391304347826086,0.04497751124437781,-0.9580209895052474,
1.749450972968657E12,4.782608695652174,5.25,9.92391304347826,4142.124542124542,2.0,2.452014652014652,407.8279055870929,-24.610687022900763,0.5038167938931297,3.801526717557252,-0.17541229385307347,0.034482758620689655,-0.9685157421289355,
1.7494509729881887E12,4.782608695652174,5.260869565217392,9.934782608695652,4140.65934065934,2.0,2.4505494505494503,408.07174887892376,-24.595419847328245,1.0381679389312977,3.2671755725190836,-0.17091454272863568,0.046476761619190406,-0.9715142428785607,
1.7494509730077205E12,4.760869565217392,5.25,9.934782608695652,4133.333333333333,2.0,2.4505494505494503,408.07174887892376,-24.183206106870227,1.4809160305343512,3.0534351145038165,-0.17091454272863568,0.02848575712143928,-0.9565217391304347,
1.7494509730272522E12,4.75,5.271739130434782,9.92391304347826,4142.124542124542,2.0,2.4490842490842493,408.3158839365839,-24.290076335877863,1.9083969465648853,3.5877862595419847,-0.17091454272863568,0.046476761619190406,-0.9685157421289355,
1.749450973046784E12,4.760869565217392,5.282608695652174,9.92391304347826,4142.124542124542,2.0,2.4490842490842493,408.3158839365839,-24.30534351145038,1.4351145038167938,3.3740458015267176,-0.17391304347826086,0.041979010494752625,-0.9655172413793103,
1.749450973066316E12,4.771739130434782,5.260869565217392,9.956521739130434,4139.194139194139,2.0,2.4490842490842493,408.3158839365839,-24.335877862595417,0.8396946564885496,3.6030534351145036,-0.17091454272863568,0.041979010494752625,-0.9610194902548725,
1.7494509730858477E12,4.804347826086956,5.260869565217392,9.945652173913043,4142.124542124542,2.0,2.447619047619048,408.56031128404663,-24.259541984732824,0.8549618320610687,3.1755725190839694,-0.17541229385307347,0.037481259370314844,-0.9685157421289355,
1.7494509731053794E12,4.815217391304348,5.25,9.91304347826087,4115.750915750916,2.0,2.4490842490842493,408.3158839365839,-24.702290076335878,0.6259541984732824,3.5572519083969465,-0.17091454272863568,0.035982008995502246,-0.9640179910044977,
1.7494509731249111E12,4.793478260869565,5.25,9.92391304347826,4104.029304029304,2.0,2.447619047619048,408.56031128404663,-24.198473282442748,0.7022900763358778,3.9083969465648853,-0.17091454272863568,0.0239880059970015,-0.9505247376311844,
1.7494509731444429E12,4.782608695652174,5.25,9.934782608695652,4140.65934065934,2.0,2.447619047619048,408.56031128404663,-24.183206106870227,1.4045801526717556,3.5877862595419847,-0.16941529235382308,0.04047976011994003,-0.95952023988006,
1.7494509731639746E12,4.75,5.260869565217392,9.956521739130434,4131.868131868132,2.0,2.447619047619048,408.56031128404663,-24.48854961832061,1.648854961832061,3.6030534351145036,-0.1679160419790105,0.041979010494752625,-0.95952023988006,
1.7494509731835063E12,4.728260869565217,5.260869565217392,9.945652173913043,4140.65934065934,2.0,2.447619047619048,408.56031128404663,-24.30534351145038,1.2671755725190839,3.5725190839694654,-0.17241379310344826,0.031484257871064465,-0.9610194902548725,
1.749450973203038E12,4.771739130434782,5.282608695652174,9.92391304347826,4140.65934065934,2.0,2.447619047619048,408.56031128404663,-24.35114503816794,0.8091603053435115,3.801526717557252,-0.1679160419790105,0.05247376311844078,-0.9655172413793103,
1.7494509732225698E12,4.793478260869565,5.260869565217392,9.92391304347826,4139.194139194139,2.0,2.447619047619048,408.56031128404663,-24.290076335877863,0.3969465648854962,3.679389312977099,-0.17091454272863568,0.031484257871064465,-0.952023988005997,
1.7494509732421016E12,4.771739130434782,5.282608695652174,9.934782608695652,4140.65934065934,2.0,2.447619047619048,408.56031128404663,-24.564885496183205,0.7480916030534351,4.061068702290076,-0.17241379310344826,0.035982008995502246,-0.9700149925037481,
1.7494509732616333E12,4.782608695652174,5.260869565217392,9.978260869565217,4115.750915750916,2.0,2.4490842490842493,408.3158839365839,-24.30534351145038,1.083969465648855,3.618320610687023,-0.17091454272863568,0.02848575712143928,-0.9610194902548725,
1.749450973281165E12,4.782608695652174,5.25,9.956521739130434,4140.65934065934,2.0,2.447619047619048,408.56031128404663,-24.335877862595417,0.8396946564885496,3.7251908396946565,-0.1634182908545727,0.037481259370314844,-0.9565217391304347,
1.7494509733006968E12,4.760869565217392,5.25,9.945652173913043,4140.65934065934,2.0,2.447619047619048,408.56031128404663,-24.47328244274809,0.6870229007633587,3.450381679389313,-0.1679160419790105,0.03298350824587706,-0.9565217391304347,
1.7494509733202285E12,4.782608695652174,5.260869565217392,9.91304347826087,4131.868131868132,2.0,2.447619047619048,408.56031128404663,-24.671755725190838,1.129770992366412,3.3893129770992365,-0.17541229385307347,0.047976011994003,-0.9610194902548725,
1.7494509733397603E12,4.793478260869565,5.25,9.967391304347826,4102.5641025641025,2.0,2.4490842490842493,408.3158839365839,-24.27480916030534,0.916030534351145,4.015267175572519,-0.17241379310344826,0.038980509745127435,-0.95952023988006,
1.749450973359292E12,4.804347826086956,5.260869565217392,9.91304347826087,4142.124542124542,2.0,2.4490842490842493,408.3158839365839,-24.381679389312975,0.8702290076335878,3.7862595419847325,-0.17691154422788605,0.019490254872563718,-0.9640179910044977,
1.7494509733788237E12,4.793478260869565,5.25,9.92391304347826,4139.194139194139,2.0,2.4490842490842493,408.3158839365839,-24.396946564885496,1.3740458015267174,3.6030534351145036,-0.1679160419790105,0.026986506746626684,-0.9625187406296851,
1.7494509733983555E12,4.782608695652174,5.260869565217392,9.945652173913043,4140.65934065934,2.0,2.4490842490842493,408.3158839365839,-24.595419847328245,1.297709923664122,3.618320610687023,-0.16941529235382308,0.038980509745127435,-0.95952023988006,
1.7494509734178872E12,4.75,5.228260869565217,9.934782608695652,4115.750915750916,2.0,2.4490842490842493,408.3158839365839,-24.198473282442748,1.5267175572519083,3.6488549618320607,-0.17241379310344826,0.035982008995502246,-0.952023988005997,
1.749450973437419E12,4.75,5.25,9.967391304347826,4142.124542124542,2.0,2.4505494505494503,408.07174887892376,-24.198473282442748,1.3435114503816794,3.450381679389313,-0.17241379310344826,0.035982008995502246,-0.9625187406296851,
1.7494509734569507E12,4.793478260869565,5.25,9.934782608695652,4142.124542124542,2.0,2.4505494505494503,408.07174887892376,-24.458015267175572,0.5343511450381679,3.5114503816793894,-0.17241379310344826,0.043478260869565216,-0.9610194902548725,
1.7494509734764824E12,4.815217391304348,5.271739130434782,9.945652173913043,4131.868131868132,2.0,2.4505494505494503,408.07174887892376,-24.442748091603054,1.282442748091603,3.3740458015267176,-0.17541229385307347,0.035982008995502246,-0.9685157421289355,
1.7494509734960142E12,4.782608695652174,5.239130434782608,9.934782608695652,4140.65934065934,2.0,2.4505494505494503,408.07174887892376,-24.549618320610687,1.3282442748091603,3.5114503816793894,-0.1649175412293853,0.03298350824587706,-0.9565217391304347,
1.749450973515546E12,4.782608695652174,5.260869565217392,9.945652173913043,4140.65934065934,2.0,2.452014652014652,407.8279055870929,-24.595419847328245,1.099236641221374,3.16030534351145,-0.1679160419790105,0.019490254872563718,-0.9565217391304347,
1.7494509735350776E12,4.793478260869565,5.25,9.92391304347826,4140.65934065934,2.0,2.452014652014652,407.8279055870929,-24.35114503816794,0.5954198473282443,3.5725190839694654,-0.17391304347826086,0.037481259370314844,-0.9610194902548725,
1.7494509735546094E12,4.771739130434782,5.25,9.934782608695652,4140.65934065934,2.0,2.452014652014652,407.8279055870929,-24.290076335877863,1.0381679389312977,3.9083969465648853,-0.16941529235382308,0.043478260869565216,-0.9640179910044977,
1.749450973574141E12,4.782608695652174,5.239130434782608,9.934782608695652,4115.750915750916,2.0,2.4534798534798536,407.5843535383696,-24.15267175572519,0.9465648854961831,3.282442748091603,-0.17091454272863568,0.031484257871064465,-0.95952023988006,
1.7494509735936729E12,4.804347826086956,5.228260869565217,9.945652173913043,4142.124542124542,2.0,2.452014652014652,407.8279055870929,-24.16793893129771,0.8091603053435115,4.076335877862595,-0.1664167916041979,0.031484257871064465,-0.9685157421289355,
1.7494509736132046E12,4.793478260869565,5.25,9.92391304347826,4140.65934065934,2.0,2.4534798534798536,407.5843535383696,-24.47328244274809,1.3740458015267174,3.312977099236641,-0.17541229385307347,0.025487256371814093,-0.9625187406296851,
1.7494509736327363E12,4.771739130434782,5.282608695652174,9.945652173913043,4133.333333333333,2.0,2.4534798534798536,407.5843535383696,-24.564885496183205,1.1908396946564885,3.7862595419847325,-0.17091454272863568,0.034482758620689655,-0.9610194902548725,
1.749450973652268E12,4.75,5.25,9.945652173913043,4140.65934065934,2.0,2.4534798534798536,407.5843535383696,-24.381679389312975,1.0229007633587786,3.8167938931297707,-0.18440779610194902,0.04047976011994003,-0.9565217391304347,
1.7494509736717998E12,4.793478260869565,5.217391304347826,9.945652173913043,4142.124542124542,2.0,2.454945054945055,407.34109221128017,-24.061068702290076,0.8549618320610687,3.4351145038167936,-0.17241379310344826,0.04047976011994003,-0.9625187406296851,
1.7494509736913315E12,4.804347826086956,5.25,9.956521739130434,4140.65934065934,2.0,2.454945054945055,407.34109221128017,-24.244274809160306,1.282442748091603,3.709923664122137,-0.16941529235382308,0.035982008995502246,-0.9580209895052474,
1.7494509737108633E12,4.782608695652174,5.25,9.956521739130434,4140.65934065934,2.0,2.454945054945055,407.34109221128017,-24.12213740458015,1.2366412213740459,3.5572519083969465,-0.16941529235382308,0.029985007496251874,-0.95952023988006,
1.7494509737303953E12,4.815217391304348,5.271739130434782,9.945652173913043,4115.750915750916,2.0,2.454945054945055,407.34109221128017,-24.35114503816794,1.282442748091603,3.3435114503816794,-0.1679160419790105,0.022488755622188904,-0.9640179910044977,
1.749450973749927E12,4.793478260869565,5.25,9.934782608695652,4142.124542124542,2.0,2.456410256410256,407.098121085595,-24.213740458015266,2.0610687022900764,3.5572519083969465,-0.1679160419790105,0.034482758620689655,-0.9655172413793103,
1.7494509737694587E12,4.782608695652174,5.282608695652174,9.956521739130434,4140.65934065934,2.0,2.454945054945055,407.34109221128017,-24.50381679389313,1.1908396946564885,3.5877862595419847,-0.16941529235382308,0.026986506746626684,-0.9610194902548725,
1.7494509737889905E12,4.771739130434782,5.260869565217392,9.945652173913043,4131.868131868132,2.0,2.456410256410256,407.098121085595,-24.381679389312975,0.8854961832061068,3.679389312977099,-0.17091454272863568,0.038980509745127435,-0.9655172413793103,
1.7494509738085222E12,4.793478260869565,5.25,9.945652173913043,4140.65934065934,2.0,2.456410256410256,407.098121085595,-24.366412213740457,0.9923664122137404,3.709923664122137,-0.1664167916041979,0.037481259370314844,-0.95952023988006,
1.749450973828054E12,4.793478260869565,5.25,9.956521739130434,4142.124542124542,2.0,2.456410256410256,407.098121085595,-24.0,0.9923664122137404,3.5725190839694654,-0.1679160419790105,0.046476761619190406,-0.9625187406296851,
1.7494509738475857E12,4.793478260869565,5.25,9.945652173913043,4139.194139194139,2.0,2.456410256410256,407.098121085595,-24.35114503816794,1.129770992366412,3.5572519083969465,-0.17241379310344826,0.022488755622188904,-0.9550224887556221,
1.7494509738671174E12,4.782608695652174,5.25,9.956521739130434,4140.65934065934,2.0,2.457875457875458,406.8554396423249,-24.106870229007633,1.3740458015267174,3.4351145038167936,-0.17541229385307347,0.022488755622188904,-0.9700149925037481,
1.7494509738866492E12,4.739130434782608,5.260869565217392,9.92391304347826,4115.750915750916,2.0,2.457875457875458,406.8554396423249,-24.366412213740457,0.9312977099236641,3.3740458015267176,-0.17991004497751123,0.04047976011994003,-0.9565217391304347,
1.749450973906181E12,4.793478260869565,5.293478260869565,9.934782608695652,4139.194139194139,2.0,2.45934065934066,406.61304736371756,-24.381679389312975,0.3511450381679389,3.2671755725190836,-0.17691154422788605,0.04047976011994003,-0.9610194902548725,
1.7494509739257126E12,4.815217391304348,5.25,9.92391304347826,4139.194139194139,2.0,2.457875457875458,406.8554396423249,-24.534351145038165,1.2519083969465647,3.4045801526717554,-0.1649175412293853,0.037481259370314844,-0.95952023988006,
1.7494509739452444E12,4.815217391304348,5.260869565217392,9.945652173913043,4130.40293040293,2.0,2.457875457875458,406.8554396423249,-24.610687022900763,0.8396946564885496,3.099236641221374,-0.18140929535232383,0.031484257871064465,-0.9715142428785607,
1.7494509739647761E12,4.771739130434782,5.25,9.945652173913043,4101.098901098901,2.0,2.45934065934066,406.61304736371756,-24.47328244274809,0.7175572519083969,3.6488549618320607,-0.17991004497751123,0.035982008995502246,-0.9715142428785607,
1.7494509739843079E12,4.804347826086956,5.260869565217392,9.956521739130434,4140.65934065934,2.0,2.45934065934066,406.61304736371756,-24.16793893129771,0.549618320610687,3.4198473282442747,-0.17241379310344826,0.0239880059970015,-0.95952023988006,
1.7494509740038396E12,4.771739130434782,5.239130434782608,9.945652173913043,4139.194139194139,2.0,2.45934065934066,406.61304736371756,-24.381679389312975,0.8702290076335878,3.7862595419847325,-0.17091454272863568,0.03298350824587706,-0.9610194902548725,
1.7494509740233713E12,4.793478260869565,5.239130434782608,9.92391304347826,4140.65934065934,2.0,2.460805860805861,406.3709437332539,-24.381679389312975,0.9923664122137404,3.4198473282442747,-0.17691154422788605,0.041979010494752625,-0.9625187406296851,
1.749450974042903E12,4.760869565217392,5.239130434782608,9.92391304347826,4127.472527472527,2.0,2.460805860805861,406.3709437332539,-24.213740458015266,0.9465648854961831,3.3740458015267176,-0.17391304347826086,0.04047976011994003,-0.9580209895052474,
1.7494509740624348E12,4.793478260869565,5.25,9.956521739130434,4140.65934065934,2.0,2.4622710622710624,406.12912823564415,-24.396946564885496,0.9770992366412213,3.2061068702290076,-0.1829085457271364,0.034482758620689655,-0.95952023988006,
1.7494509740819666E12,4.771739130434782,5.25,9.934782608695652,4140.65934065934,2.0,2.4622710622710624,406.12912823564415,-24.259541984732824,1.2213740458015268,3.0381679389312977,-0.17091454272863568,0.034482758620689655,-0.9565217391304347,
1.7494509741014983E12,4.793478260869565,5.271739130434782,9.934782608695652,4130.40293040293,2.0,2.463736263736264,405.88760035682424,-24.396946564885496,0.7786259541984732,3.297709923664122,-0.1664167916041979,0.034482758620689655,-0.9640179910044977,
1.74945097412103E12,4.793478260869565,5.271739130434782,9.945652173913043,4142.124542124542,2.0,2.463736263736264,405.88760035682424,-24.16793893129771,0.6717557251908397,3.2213740458015265,-0.18140929535232383,0.025487256371814093,-0.9475262368815592,
1.7494509741405618E12,4.804347826086956,5.293478260869565,9.967391304347826,4142.124542124542,2.0,2.463736263736264,405.88760035682424,-24.534351145038165,1.0229007633587786,3.129770992366412,-0.17541229385307347,0.026986506746626684,-0.9640179910044977,
1.7494509741600935E12,4.782608695652174,5.271739130434782,9.945652173913043,4140.65934065934,2.0,2.4652014652014658,405.6463595839524,-24.564885496183205,0.549618320610687,3.480916030534351,-0.1679160419790105,0.03298350824587706,-0.9580209895052474,
1.7494509741796252E12,4.793478260869565,5.239130434782608,9.934782608695652,4140.65934065934,2.0,2.466666666666667,405.40540540540536,-24.77862595419847,0.3511450381679389,3.0839694656488548,-0.17691154422788605,0.04947526236881559,-0.9700149925037481,
1.749450974199157E12,4.804347826086956,5.228260869565217,9.945652173913043,4117.216117216117,2.0,2.466666666666667,405.40540540540536,-24.16793893129771,0.6717557251908397,3.6030534351145036,-0.17541229385307347,0.04047976011994003,-0.9625187406296851,
1.7494509742186887E12,4.782608695652174,5.228260869565217,9.945652173913043,4104.029304029304,2.0,2.4681318681318682,405.1647373107747,-24.259541984732824,0.7633587786259541,4.061068702290076,-0.17241379310344826,0.0239880059970015,-0.9565217391304347,
1.7494509742382205E12,4.83695652173913,5.217391304347826,9.92391304347826,4142.124542124542,2.0,2.4681318681318682,405.1647373107747,-24.198473282442748,1.0687022900763359,3.847328244274809,-0.1649175412293853,0.06446776611694152,-0.9655172413793103,
1.7494509742577522E12,4.815217391304348,5.217391304347826,9.945652173913043,4131.868131868132,2.0,2.4681318681318682,405.1647373107747,-24.16793893129771,2.091603053435114,3.8625954198473282,-0.16941529235382308,0.034482758620689655,-0.9670164917541229,
1.749450974277284E12,4.771739130434782,5.260869565217392,9.945652173913043,4142.124542124542,2.0,2.4681318681318682,405.1647373107747,-24.30534351145038,1.816793893129771,3.969465648854962,-0.17241379310344826,0.046476761619190406,-0.9655172413793103,
1.7494509742968157E12,4.771739130434782,5.260869565217392,9.934782608695652,4142.124542124542,2.0,2.4681318681318682,405.1647373107747,-24.229007633587784,1.2671755725190839,3.709923664122137,-0.17541229385307347,0.041979010494752625,-0.9550224887556221,
1.7494509743163474E12,4.782608695652174,5.239130434782608,9.945652173913043,4140.65934065934,2.0,2.4695970695970697,404.9243547908632,-24.641221374045802,1.2366412213740459,3.679389312977099,-0.18140929535232383,0.04047976011994003,-0.9580209895052474,
1.7494509743358792E12,4.782608695652174,5.25,9.934782608695652,4140.65934065934,2.0,2.4695970695970697,404.9243547908632,-24.091603053435115,1.1603053435114503,3.4045801526717554,-0.16941529235382308,0.020989505247376312,-0.9640179910044977,
1.749450974355411E12,4.771739130434782,5.271739130434782,9.934782608695652,4115.750915750916,2.0,2.4695970695970697,404.9243547908632,-24.458015267175572,0.9618320610687022,3.4198473282442747,-0.17541229385307347,0.047976011994003,-0.9640179910044977,
1.7494509743749429E12,4.771739130434782,5.260869565217392,9.934782608695652,4142.124542124542,2.0,2.4695970695970697,404.9243547908632,-24.15267175572519,0.916030534351145,2.763358778625954,-0.17241379310344826,0.02848575712143928,-0.952023988005997,
1.7494509743944746E12,4.771739130434782,5.260869565217392,9.956521739130434,4140.65934065934,2.0,2.471062271062271,404.6842573376816,-24.381679389312975,0.8396946564885496,3.2061068702290076,-0.17541229385307347,0.04947526236881559,-0.9670164917541229,
1.7494509744140063E12,4.771739130434782,5.228260869565217,9.967391304347826,4130.40293040293,2.0,2.4695970695970697,404.9243547908632,-24.412213740458014,0.549618320610687,3.4351145038167936,-0.17391304347826086,0.043478260869565216,-0.9610194902548725,
